date,time,subject,blockcode,blocknum_and_trialnum,trialcode,primestim,targetstim,correct,latency,exclude_amp_performance,expected_trials,exclude_amp_completeness,mean_self_report,amp_bias_score,duplicate_flag,master_exclusion
23.06.22,10:46:38,548957868,practice,1_4,prime_negative_practice,0,0,0,541,include,82,exclude,NA,0,FALSE,exclude
23.06.22,10:46:38,548957868,practice,1_5,prime_negative_practice,0,0,0,264,include,82,exclude,NA,0,TRUE,exclude
23.06.22,10:46:38,548957868,practice,1_6,prime_positive_practice,0,0,1,1260,include,82,exclude,NA,0,TRUE,exclude
23.06.22,10:46:38,548957868,test,2_1,instructions,0,0,1,3313,include,82,exclude,NA,0,TRUE,exclude
23.06.22,11:55:36,504546409,practice,1_4,prime_negative_practice,0,0,0,593,include,82,exclude,NA,0.1111111111111111,FALSE,exclude
23.06.22,11:55:36,504546409,practice,1_5,prime_positive_practice,0,0,0,192,include,82,exclude,NA,0.1111111111111111,TRUE,exclude
23.06.22,11:55:36,504546409,practice,1_6,prime_positive_practice,0,0,0,252,include,82,exclude,NA,0.1111111111111111,TRUE,exclude
23.06.22,11:55:36,504546409,practice,1_7,prime_negative_practice,0,0,0,189,include,82,exclude,NA,0.1111111111111111,TRUE,exclude
23.06.22,11:55:36,504546409,practice,1_8,prime_negative_practice,0,0,1,240,include,82,exclude,NA,0.1111111111111111,TRUE,exclude
23.06.22,11:55:36,504546409,practice,1_9,prime_negative_practice,0,0,0,246,include,82,exclude,NA,0.1111111111111111,TRUE,exclude
23.06.22,11:55:36,504546409,practice,1_10,prime_positive_practice,0,0,0,248,include,82,exclude,NA,0.1111111111111111,TRUE,exclude
23.06.22,11:55:36,504546409,practice,1_11,prime_positive_practice,0,0,0,224,include,82,exclude,NA,0.1111111111111111,TRUE,exclude
23.06.22,11:55:36,504546409,practice,1_12,prime_negative_practice,0,0,0,263,include,82,exclude,NA,0.1111111111111111,TRUE,exclude
23.06.22,11:55:36,504546409,practice,1_13,prime_positive_practice,0,0,1,252,include,82,exclude,NA,0.1111111111111111,TRUE,exclude
23.06.22,11:55:36,504546409,test,2_2,prime_positive,1,61,0,161,include,82,exclude,NA,0.1111111111111111,TRUE,exclude
23.06.22,11:55:36,504546409,test,2_3,prime_positive,2,4,0,328,include,82,exclude,NA,0.1111111111111111,TRUE,exclude
23.06.22,11:55:36,504546409,test,2_4,prime_positive,4,54,1,220,include,82,exclude,NA,0.1111111111111111,TRUE,exclude
23.06.22,11:55:36,504546409,test,2_5,prime_negative,1,33,1,308,include,82,exclude,NA,0.1111111111111111,TRUE,exclude
23.06.22,11:55:36,504546409,test,2_6,prime_negative,3,71,1,235,include,82,exclude,NA,0.1111111111111111,TRUE,exclude
23.06.22,11:55:36,504546409,test,2_7,prime_negative,4,37,1,224,include,82,exclude,NA,0.1111111111111111,TRUE,exclude
23.06.22,11:55:36,504546409,test,2_8,prime_negative,2,19,0,369,include,82,exclude,NA,0.1111111111111111,TRUE,exclude
23.06.22,11:55:36,504546409,test,2_9,prime_positive,4,56,1,1105,include,82,exclude,NA,0.1111111111111111,TRUE,exclude
23.06.22,12:37:27,893377996,practice,1_4,prime_negative_practice,0,0,1,751,include,82,exclude,NA,0,FALSE,exclude
23.06.22,12:37:27,893377996,test,2_1,instructions,0,0,1,241,include,82,exclude,NA,0,TRUE,exclude
23.06.22,12:23:51,994692692,practice,1_4,prime_positive_practice,0,0,0,2290,include,82,include,1.3333333333333333,0.4024390243902439,FALSE,include
23.06.22,12:23:51,994692692,practice,1_5,prime_negative_practice,0,0,0,1550,include,82,include,1.3333333333333333,0.4024390243902439,TRUE,exclude
23.06.22,12:23:51,994692692,practice,1_6,prime_positive_practice,0,0,0,818,include,82,include,1.3333333333333333,0.4024390243902439,TRUE,exclude
23.06.22,12:23:51,994692692,practice,1_7,prime_negative_practice,0,0,0,842,include,82,include,1.3333333333333333,0.4024390243902439,TRUE,exclude
23.06.22,12:23:51,994692692,practice,1_8,prime_positive_practice,0,0,1,914,include,82,include,1.3333333333333333,0.4024390243902439,TRUE,exclude
23.06.22,12:23:51,994692692,practice,1_9,prime_negative_practice,0,0,0,1040,include,82,include,1.3333333333333333,0.4024390243902439,TRUE,exclude
23.06.22,12:23:51,994692692,practice,1_10,prime_positive_practice,0,0,0,697,include,82,include,1.3333333333333333,0.4024390243902439,TRUE,exclude
23.06.22,12:23:51,994692692,practice,1_11,prime_positive_practice,0,0,0,806,include,82,include,1.3333333333333333,0.4024390243902439,TRUE,exclude
23.06.22,12:23:51,994692692,practice,1_12,prime_negative_practice,0,0,0,795,include,82,include,1.3333333333333333,0.4024390243902439,TRUE,exclude
23.06.22,12:23:51,994692692,practice,1_13,prime_negative_practice,0,0,0,2520,include,82,include,1.3333333333333333,0.4024390243902439,TRUE,exclude
23.06.22,12:23:51,994692692,test,2_2,prime_positive,1,23,0,1611,include,82,include,1.3333333333333333,0.4024390243902439,TRUE,exclude
23.06.22,12:23:51,994692692,test,2_3,prime_negative,3,33,0,627,include,82,include,1.3333333333333333,0.4024390243902439,TRUE,exclude
23.06.22,12:23:51,994692692,test,2_4,prime_negative,4,21,1,865,include,82,include,1.3333333333333333,0.4024390243902439,TRUE,exclude
23.06.22,12:23:51,994692692,test,2_5,prime_negative,1,60,1,766,include,82,include,1.3333333333333333,0.4024390243902439,TRUE,exclude
23.06.22,12:23:51,994692692,test,2_6,prime_positive,2,30,0,582,include,82,include,1.3333333333333333,0.4024390243902439,TRUE,exclude
23.06.22,12:23:51,994692692,test,2_7,prime_negative,1,16,0,495,include,82,include,1.3333333333333333,0.4024390243902439,TRUE,exclude
23.06.22,12:23:51,994692692,test,2_8,prime_negative,4,61,1,869,include,82,include,1.3333333333333333,0.4024390243902439,TRUE,exclude
23.06.22,12:23:51,994692692,test,2_9,prime_positive,3,24,0,699,include,82,include,1.3333333333333333,0.4024390243902439,TRUE,exclude
23.06.22,12:23:51,994692692,test,2_10,prime_positive,3,11,1,971,include,82,include,1.3333333333333333,0.4024390243902439,TRUE,exclude
23.06.22,12:23:51,994692692,test,2_11,prime_negative,2,56,0,588,include,82,include,1.3333333333333333,0.4024390243902439,TRUE,exclude
23.06.22,12:23:51,994692692,test,2_12,prime_negative,3,28,0,587,include,82,include,1.3333333333333333,0.4024390243902439,TRUE,exclude
23.06.22,12:23:51,994692692,test,2_13,prime_negative,4,68,1,615,include,82,include,1.3333333333333333,0.4024390243902439,TRUE,exclude
23.06.22,12:23:51,994692692,test,2_14,prime_positive,4,38,1,804,include,82,include,1.3333333333333333,0.4024390243902439,TRUE,exclude
23.06.22,12:23:51,994692692,test,2_15,prime_negative,3,6,0,297,include,82,include,1.3333333333333333,0.4024390243902439,TRUE,exclude
23.06.22,12:23:51,994692692,test,2_16,prime_negative,1,39,0,587,include,82,include,1.3333333333333333,0.4024390243902439,TRUE,exclude
23.06.22,12:23:51,994692692,test,2_17,prime_negative,2,66,0,617,include,82,include,1.3333333333333333,0.4024390243902439,TRUE,exclude
23.06.22,12:23:51,994692692,test,2_18,prime_positive,1,53,1,536,include,82,include,1.3333333333333333,0.4024390243902439,TRUE,exclude
23.06.22,12:23:51,994692692,test,2_19,prime_positive,2,46,1,684,include,82,include,1.3333333333333333,0.4024390243902439,TRUE,exclude
23.06.22,12:23:51,994692692,test,2_20,prime_negative,2,70,0,515,include,82,include,1.3333333333333333,0.4024390243902439,TRUE,exclude
23.06.22,12:23:51,994692692,test,2_21,prime_negative,3,55,0,448,include,82,include,1.3333333333333333,0.4024390243902439,TRUE,exclude
23.06.22,12:23:51,994692692,test,2_22,prime_negative,4,59,1,490,include,82,include,1.3333333333333333,0.4024390243902439,TRUE,exclude
23.06.22,12:23:51,994692692,test,2_23,prime_positive,3,3,1,628,include,82,include,1.3333333333333333,0.4024390243902439,TRUE,exclude
23.06.22,12:23:51,994692692,test,2_24,prime_negative,1,13,0,421,include,82,include,1.3333333333333333,0.4024390243902439,TRUE,exclude
23.06.22,12:23:51,994692692,test,2_25,prime_positive,1,12,1,470,include,82,include,1.3333333333333333,0.4024390243902439,TRUE,exclude
23.06.22,12:23:51,994692692,test,2_26,prime_negative,2,45,1,733,include,82,include,1.3333333333333333,0.4024390243902439,TRUE,exclude
23.06.22,12:23:51,994692692,test,2_27,prime_positive,4,18,1,547,include,82,include,1.3333333333333333,0.4024390243902439,TRUE,exclude
23.06.22,12:23:51,994692692,test,2_28,prime_positive,2,19,1,503,include,82,include,1.3333333333333333,0.4024390243902439,TRUE,exclude
23.06.22,12:23:51,994692692,test,2_29,prime_negative,1,31,0,487,include,82,include,1.3333333333333333,0.4024390243902439,TRUE,exclude
23.06.22,12:23:51,994692692,test,2_30,prime_positive,3,15,1,347,include,82,include,1.3333333333333333,0.4024390243902439,TRUE,exclude
23.06.22,12:23:51,994692692,test,2_31,prime_negative,4,62,1,1008,include,82,include,1.3333333333333333,0.4024390243902439,TRUE,exclude
23.06.22,12:23:51,994692692,test,2_32,prime_negative,3,29,0,316,include,82,include,1.3333333333333333,0.4024390243902439,TRUE,exclude
23.06.22,12:23:51,994692692,test,2_33,prime_positive,4,48,1,492,include,82,include,1.3333333333333333,0.4024390243902439,TRUE,exclude
23.06.22,12:23:51,994692692,test,2_34,prime_positive,2,69,1,492,include,82,include,1.3333333333333333,0.4024390243902439,TRUE,exclude
23.06.22,12:23:51,994692692,test,2_35,prime_negative,4,57,0,533,include,82,include,1.3333333333333333,0.4024390243902439,TRUE,exclude
23.06.22,12:23:51,994692692,test,2_36,prime_negative,1,35,0,443,include,82,include,1.3333333333333333,0.4024390243902439,TRUE,exclude
23.06.22,12:23:51,994692692,test,2_37,prime_positive,1,14,1,545,include,82,include,1.3333333333333333,0.4024390243902439,TRUE,exclude
23.06.22,12:23:51,994692692,test,2_38,prime_negative,2,2,1,848,include,82,include,1.3333333333333333,0.4024390243902439,TRUE,exclude
23.06.22,12:23:51,994692692,test,2_39,prime_negative,3,52,0,408,include,82,include,1.3333333333333333,0.4024390243902439,TRUE,exclude
23.06.22,12:23:51,994692692,test,2_40,prime_positive,2,51,1,546,include,82,include,1.3333333333333333,0.4024390243902439,TRUE,exclude
23.06.22,12:23:51,994692692,test,2_41,prime_positive,1,41,1,508,include,82,include,1.3333333333333333,0.4024390243902439,TRUE,exclude
23.06.22,12:23:51,994692692,test,2_42,prime_negative,4,72,0,654,include,82,include,1.3333333333333333,0.4024390243902439,TRUE,exclude
23.06.22,12:23:51,994692692,test,2_43,prime_positive,3,36,1,423,include,82,include,1.3333333333333333,0.4024390243902439,TRUE,exclude
23.06.22,12:23:51,994692692,test,2_44,prime_positive,4,42,1,614,include,82,include,1.3333333333333333,0.4024390243902439,TRUE,exclude
23.06.22,12:23:51,994692692,test,2_45,prime_positive,1,27,1,485,include,82,include,1.3333333333333333,0.4024390243902439,TRUE,exclude
23.06.22,12:23:51,994692692,test,2_46,prime_positive,4,64,1,1424,include,82,include,1.3333333333333333,0.4024390243902439,TRUE,exclude
23.06.22,12:23:51,994692692,test,2_47,prime_positive,2,63,1,684,include,82,include,1.3333333333333333,0.4024390243902439,TRUE,exclude
23.06.22,12:23:51,994692692,test,2_48,prime_positive,3,50,1,732,include,82,include,1.3333333333333333,0.4024390243902439,TRUE,exclude
23.06.22,12:23:51,994692692,test,2_49,prime_positive,1,25,1,656,include,82,include,1.3333333333333333,0.4024390243902439,TRUE,exclude
23.06.22,12:23:51,994692692,test,2_50,prime_negative,2,26,0,387,include,82,include,1.3333333333333333,0.4024390243902439,TRUE,exclude
23.06.22,12:23:51,994692692,test,2_51,prime_positive,4,71,1,499,include,82,include,1.3333333333333333,0.4024390243902439,TRUE,exclude
23.06.22,12:23:51,994692692,test,2_52,prime_negative,1,65,0,410,include,82,include,1.3333333333333333,0.4024390243902439,TRUE,exclude
23.06.22,12:23:51,994692692,test,2_53,prime_positive,3,9,1,402,include,82,include,1.3333333333333333,0.4024390243902439,TRUE,exclude
23.06.22,12:23:51,994692692,test,2_54,prime_negative,3,20,0,438,include,82,include,1.3333333333333333,0.4024390243902439,TRUE,exclude
23.06.22,12:23:51,994692692,test,2_55,prime_positive,2,44,1,454,include,82,include,1.3333333333333333,0.4024390243902439,TRUE,exclude
23.06.22,12:23:51,994692692,test,2_56,prime_positive,2,54,1,793,include,82,include,1.3333333333333333,0.4024390243902439,TRUE,exclude
23.06.22,12:23:51,994692692,test,2_57,prime_positive,4,34,1,577,include,82,include,1.3333333333333333,0.4024390243902439,TRUE,exclude
23.06.22,12:23:51,994692692,test,2_58,prime_negative,4,37,1,534,include,82,include,1.3333333333333333,0.4024390243902439,TRUE,exclude
23.06.22,12:23:51,994692692,test,2_59,prime_negative,1,58,0,236,include,82,include,1.3333333333333333,0.4024390243902439,TRUE,exclude
23.06.22,12:23:51,994692692,test,2_60,prime_negative,3,43,0,376,include,82,include,1.3333333333333333,0.4024390243902439,TRUE,exclude
23.06.22,12:23:51,994692692,test,2_61,prime_negative,2,17,0,550,include,82,include,1.3333333333333333,0.4024390243902439,TRUE,exclude
23.06.22,12:23:51,994692692,test,2_62,prime_negative,1,47,0,533,include,82,include,1.3333333333333333,0.4024390243902439,TRUE,exclude
23.06.22,12:23:51,994692692,test,2_63,prime_positive,1,5,1,457,include,82,include,1.3333333333333333,0.4024390243902439,TRUE,exclude
23.06.22,12:23:51,994692692,test,2_64,prime_positive,3,56,1,481,include,82,include,1.3333333333333333,0.4024390243902439,TRUE,exclude
23.06.22,12:23:51,994692692,test,2_65,prime_positive,1,43,1,1368,include,82,include,1.3333333333333333,0.4024390243902439,TRUE,exclude
23.06.22,12:23:51,994692692,test,2_66,prime_negative,2,32,1,606,include,82,include,1.3333333333333333,0.4024390243902439,TRUE,exclude
23.06.22,12:23:51,994692692,test,2_67,prime_positive,2,11,1,421,include,82,include,1.3333333333333333,0.4024390243902439,TRUE,exclude
23.06.22,12:23:51,994692692,test,2_68,prime_negative,3,6,0,357,include,82,include,1.3333333333333333,0.4024390243902439,TRUE,exclude
23.06.22,12:23:51,994692692,test,2_69,prime_positive,3,69,1,564,include,82,include,1.3333333333333333,0.4024390243902439,TRUE,exclude
23.06.22,12:23:51,994692692,test,2_70,prime_negative,4,7,1,780,include,82,include,1.3333333333333333,0.4024390243902439,TRUE,exclude
23.06.22,12:23:51,994692692,test,2_71,prime_positive,4,33,1,4696,include,82,include,1.3333333333333333,0.4024390243902439,TRUE,exclude
23.06.22,12:23:51,994692692,test,2_72,prime_positive,3,40,1,372,include,82,include,1.3333333333333333,0.4024390243902439,TRUE,exclude
23.06.22,12:23:51,994692692,test,2_73,prime_negative,2,66,0,377,include,82,include,1.3333333333333333,0.4024390243902439,TRUE,exclude
23.06.22,12:28:35,246532124,practice,1_4,prime_negative_practice,0,0,0,3729,include,82,exclude,4,0.4329268292682927,FALSE,exclude
23.06.22,12:28:35,246532124,practice,1_5,prime_positive_practice,0,0,1,1580,include,82,exclude,4,0.4329268292682927,TRUE,exclude
23.06.22,12:28:35,246532124,practice,1_6,prime_positive_practice,0,0,1,1821,include,82,exclude,4,0.4329268292682927,TRUE,exclude
23.06.22,12:28:35,246532124,practice,1_7,prime_negative_practice,0,0,1,1404,include,82,exclude,4,0.4329268292682927,TRUE,exclude
23.06.22,12:28:35,246532124,practice,1_8,prime_positive_practice,0,0,1,1303,include,82,exclude,4,0.4329268292682927,TRUE,exclude
23.06.22,12:28:35,246532124,practice,1_9,prime_positive_practice,0,0,0,1110,include,82,exclude,4,0.4329268292682927,TRUE,exclude
23.06.22,12:28:35,246532124,practice,1_10,prime_positive_practice,0,0,1,1511,include,82,exclude,4,0.4329268292682927,TRUE,exclude
23.06.22,12:28:35,246532124,practice,1_11,prime_negative_practice,0,0,0,1011,include,82,exclude,4,0.4329268292682927,TRUE,exclude
23.06.22,12:28:35,246532124,practice,1_12,prime_negative_practice,0,0,0,2362,include,82,exclude,4,0.4329268292682927,TRUE,exclude
23.06.22,12:28:35,246532124,practice,1_13,prime_negative_practice,0,0,1,946,include,82,exclude,4,0.4329268292682927,TRUE,exclude
23.06.22,12:28:35,246532124,test,2_2,prime_positive,2,28,1,1344,include,82,exclude,4,0.4329268292682927,TRUE,exclude
23.06.22,12:28:35,246532124,test,2_3,prime_positive,3,63,1,769,include,82,exclude,4,0.4329268292682927,TRUE,exclude
23.06.22,12:28:35,246532124,test,2_4,prime_positive,1,13,1,636,include,82,exclude,4,0.4329268292682927,TRUE,exclude
23.06.22,12:28:35,246532124,test,2_5,prime_positive,4,60,1,502,include,82,exclude,4,0.4329268292682927,TRUE,exclude
23.06.22,12:28:35,246532124,test,2_6,prime_negative,3,57,1,670,include,82,exclude,4,0.4329268292682927,TRUE,exclude
23.06.22,12:28:35,246532124,test,2_7,prime_positive,1,44,1,569,include,82,exclude,4,0.4329268292682927,TRUE,exclude
23.06.22,12:28:35,246532124,test,2_8,prime_negative,1,45,1,695,include,82,exclude,4,0.4329268292682927,TRUE,exclude
23.06.22,12:28:35,246532124,test,2_9,prime_negative,4,12,1,752,include,82,exclude,4,0.4329268292682927,TRUE,exclude
23.06.22,12:28:35,246532124,test,2_10,prime_negative,2,62,1,1129,include,82,exclude,4,0.4329268292682927,TRUE,exclude
23.06.22,12:28:35,246532124,test,2_11,prime_positive,2,39,1,653,include,82,exclude,4,0.4329268292682927,TRUE,exclude
23.06.22,12:28:35,246532124,test,2_12,prime_positive,3,72,1,620,include,82,exclude,4,0.4329268292682927,TRUE,exclude
23.06.22,12:28:35,246532124,test,2_13,prime_positive,4,2,1,444,include,82,exclude,4,0.4329268292682927,TRUE,exclude
23.06.22,12:28:35,246532124,test,2_14,prime_positive,3,4,1,403,include,82,exclude,4,0.4329268292682927,TRUE,exclude
23.06.22,12:28:35,246532124,test,2_15,prime_positive,1,67,1,386,include,82,exclude,4,0.4329268292682927,TRUE,exclude
23.06.22,12:28:35,246532124,test,2_16,prime_negative,4,29,1,769,include,82,exclude,4,0.4329268292682927,TRUE,exclude
23.06.22,12:28:35,246532124,test,2_17,prime_negative,3,65,1,628,include,82,exclude,4,0.4329268292682927,TRUE,exclude
23.06.22,12:28:35,246532124,test,2_18,prime_negative,1,1,1,794,include,82,exclude,4,0.4329268292682927,TRUE,exclude
23.06.22,12:28:35,246532124,test,2_19,prime_negative,1,7,0,1338,include,82,exclude,4,0.4329268292682927,TRUE,exclude
23.06.22,12:28:35,246532124,test,2_20,prime_negative,4,70,1,611,include,82,exclude,4,0.4329268292682927,TRUE,exclude
23.06.22,12:28:35,246532124,test,2_21,prime_positive,2,54,1,794,include,82,exclude,4,0.4329268292682927,TRUE,exclude
23.06.22,12:28:35,246532124,test,2_22,prime_positive,4,6,1,453,include,82,exclude,4,0.4329268292682927,TRUE,exclude
23.06.22,12:28:35,246532124,test,2_23,prime_negative,2,23,1,1246,include,82,exclude,4,0.4329268292682927,TRUE,exclude
23.06.22,12:28:35,246532124,test,2_24,prime_negative,3,26,1,1388,include,82,exclude,4,0.4329268292682927,TRUE,exclude
23.06.22,12:28:35,246532124,test,2_25,prime_negative,1,22,0,770,include,82,exclude,4,0.4329268292682927,TRUE,exclude
23.06.22,12:28:35,246532124,test,2_26,prime_negative,3,38,1,528,include,82,exclude,4,0.4329268292682927,TRUE,exclude
23.06.22,12:28:35,246532124,test,2_27,prime_negative,4,9,1,477,include,82,exclude,4,0.4329268292682927,TRUE,exclude
23.06.22,12:28:35,246532124,test,2_28,prime_negative,2,16,1,1537,include,82,exclude,4,0.4329268292682927,TRUE,exclude
23.06.22,12:28:35,246532124,test,2_29,prime_positive,2,52,1,485,include,82,exclude,4,0.4329268292682927,TRUE,exclude
23.06.22,12:28:35,246532124,test,2_30,prime_positive,3,18,1,403,include,82,exclude,4,0.4329268292682927,TRUE,exclude
23.06.22,12:28:35,246532124,test,2_31,prime_negative,1,51,0,594,include,82,exclude,4,0.4329268292682927,TRUE,exclude
23.06.22,12:28:35,246532124,test,2_32,prime_positive,1,40,1,293,include,82,exclude,4,0.4329268292682927,TRUE,exclude
23.06.22,12:28:35,246532124,test,2_33,prime_positive,4,46,1,243,include,82,exclude,4,0.4329268292682927,TRUE,exclude
23.06.22,12:28:35,246532124,test,2_34,prime_negative,2,30,1,802,include,82,exclude,4,0.4329268292682927,TRUE,exclude
23.06.22,12:28:35,246532124,test,2_35,prime_positive,1,53,1,561,include,82,exclude,4,0.4329268292682927,TRUE,exclude
23.06.22,12:28:35,246532124,test,2_36,prime_negative,3,17,1,444,include,82,exclude,4,0.4329268292682927,TRUE,exclude
23.06.22,12:28:35,246532124,test,2_37,prime_negative,4,25,1,243,include,82,exclude,4,0.4329268292682927,TRUE,exclude
23.06.22,12:28:35,246532124,test,2_38,prime_positive,3,20,1,693,include,82,exclude,4,0.4329268292682927,TRUE,exclude
23.06.22,12:28:35,246532124,test,2_39,prime_positive,2,47,1,353,include,82,exclude,4,0.4329268292682927,TRUE,exclude
23.06.22,12:28:35,246532124,test,2_40,prime_positive,2,14,1,386,include,82,exclude,4,0.4329268292682927,TRUE,exclude
23.06.22,12:28:35,246532124,test,2_41,prime_positive,1,64,1,653,include,82,exclude,4,0.4329268292682927,TRUE,exclude
23.06.22,12:28:35,246532124,test,2_42,prime_negative,3,24,1,1262,include,82,exclude,4,0.4329268292682927,TRUE,exclude
23.06.22,12:28:35,246532124,test,2_43,prime_negative,2,66,1,635,include,82,exclude,4,0.4329268292682927,TRUE,exclude
23.06.22,12:28:35,246532124,test,2_44,prime_negative,1,42,1,1203,include,82,exclude,4,0.4329268292682927,TRUE,exclude
23.06.22,12:28:35,246532124,test,2_45,prime_negative,4,68,1,469,include,82,exclude,4,0.4329268292682927,TRUE,exclude
23.06.22,12:28:35,246532124,test,2_46,prime_negative,4,34,1,969,include,82,exclude,4,0.4329268292682927,TRUE,exclude
23.06.22,12:28:35,246532124,test,2_47,prime_positive,3,49,1,636,include,82,exclude,4,0.4329268292682927,TRUE,exclude
23.06.22,12:28:35,246532124,test,2_48,prime_negative,1,19,0,1254,include,82,exclude,4,0.4329268292682927,TRUE,exclude
23.06.22,12:28:35,246532124,test,2_49,prime_positive,4,37,1,535,include,82,exclude,4,0.4329268292682927,TRUE,exclude
23.06.22,12:28:35,246532124,test,2_50,prime_negative,3,50,1,570,include,82,exclude,4,0.4329268292682927,TRUE,exclude
23.06.22,12:28:35,246532124,test,2_51,prime_positive,2,5,1,561,include,82,exclude,4,0.4329268292682927,TRUE,exclude
23.06.22,12:28:35,246532124,test,2_52,prime_positive,1,31,1,527,include,82,exclude,4,0.4329268292682927,TRUE,exclude
23.06.22,12:28:35,246532124,test,2_53,prime_negative,2,3,1,778,include,82,exclude,4,0.4329268292682927,TRUE,exclude
23.06.22,12:28:35,246532124,test,2_54,prime_negative,3,33,0,895,include,82,exclude,4,0.4329268292682927,TRUE,exclude
23.06.22,12:28:35,246532124,test,2_55,prime_positive,4,56,1,627,include,82,exclude,4,0.4329268292682927,TRUE,exclude
23.06.22,12:28:35,246532124,test,2_56,prime_negative,2,11,0,920,include,82,exclude,4,0.4329268292682927,TRUE,exclude
23.06.22,12:28:35,246532124,test,2_57,prime_negative,4,21,1,637,include,82,exclude,4,0.4329268292682927,TRUE,exclude
23.06.22,12:28:35,246532124,test,2_58,prime_positive,3,10,1,628,include,82,exclude,4,0.4329268292682927,TRUE,exclude
23.06.22,12:28:35,246532124,test,2_59,prime_positive,2,48,1,460,include,82,exclude,4,0.4329268292682927,TRUE,exclude
23.06.22,12:28:35,246532124,test,2_60,prime_positive,1,36,1,437,include,82,exclude,4,0.4329268292682927,TRUE,exclude
23.06.22,12:28:35,246532124,test,2_61,prime_positive,3,71,1,402,include,82,exclude,4,0.4329268292682927,TRUE,exclude
23.06.22,12:28:35,246532124,test,2_62,prime_positive,4,43,1,486,include,82,exclude,4,0.4329268292682927,TRUE,exclude
23.06.22,12:28:35,246532124,test,2_63,prime_negative,1,8,1,2019,include,82,exclude,4,0.4329268292682927,TRUE,exclude
23.06.22,12:28:35,246532124,test,2_64,prime_negative,1,50,1,986,include,82,exclude,4,0.4329268292682927,TRUE,exclude
23.06.22,12:28:35,246532124,test,2_65,prime_positive,2,39,0,1062,include,82,exclude,4,0.4329268292682927,TRUE,exclude
23.06.22,12:28:35,246532124,test,2_66,prime_positive,3,24,1,828,include,82,exclude,4,0.4329268292682927,TRUE,exclude
23.06.22,12:28:35,246532124,test,2_67,prime_positive,4,28,1,561,include,82,exclude,4,0.4329268292682927,TRUE,exclude
23.06.22,12:28:35,246532124,test,2_68,prime_positive,1,63,1,419,include,82,exclude,4,0.4329268292682927,TRUE,exclude
23.06.22,12:28:35,246532124,test,2_69,prime_negative,4,17,0,961,include,82,exclude,4,0.4329268292682927,TRUE,exclude
23.06.22,12:28:35,246532124,test,2_70,prime_positive,2,11,1,419,include,82,exclude,4,0.4329268292682927,TRUE,exclude
23.06.22,12:28:35,246532124,test,2_71,prime_negative,3,16,1,536,include,82,exclude,4,0.4329268292682927,TRUE,exclude
23.06.22,12:28:35,246532124,test,2_72,prime_negative,2,58,1,494,include,82,exclude,4,0.4329268292682927,TRUE,exclude
23.06.22,12:28:35,246532124,test,2_73,prime_negative,3,3,1,1044,include,82,exclude,4,0.4329268292682927,TRUE,exclude
23.06.22,12:32:49,246532124,practice,1_4,prime_positive_practice,0,0,1,744,include,82,exclude,4,0.4329268292682927,TRUE,exclude
23.06.22,12:32:49,246532124,practice,1_5,prime_negative_practice,0,0,1,303,include,82,exclude,4,0.4329268292682927,TRUE,exclude
23.06.22,12:32:49,246532124,practice,1_6,prime_negative_practice,0,0,1,369,include,82,exclude,4,0.4329268292682927,TRUE,exclude
23.06.22,12:32:49,246532124,practice,1_7,prime_negative_practice,0,0,1,303,include,82,exclude,4,0.4329268292682927,TRUE,exclude
23.06.22,12:32:49,246532124,practice,1_8,prime_negative_practice,0,0,1,209,include,82,exclude,4,0.4329268292682927,TRUE,exclude
23.06.22,12:32:49,246532124,practice,1_9,prime_positive_practice,0,0,1,544,include,82,exclude,4,0.4329268292682927,TRUE,exclude
23.06.22,12:32:49,246532124,practice,1_10,prime_positive_practice,0,0,1,251,include,82,exclude,4,0.4329268292682927,TRUE,exclude
23.06.22,12:32:49,246532124,practice,1_11,prime_positive_practice,0,0,1,160,include,82,exclude,4,0.4329268292682927,TRUE,exclude
23.06.22,12:32:49,246532124,practice,1_12,prime_negative_practice,0,0,1,485,include,82,exclude,4,0.4329268292682927,TRUE,exclude
23.06.22,12:32:49,246532124,practice,1_13,prime_positive_practice,0,0,1,320,include,82,exclude,4,0.4329268292682927,TRUE,exclude
23.06.22,12:32:49,246532124,test,2_2,prime_negative,1,11,1,417,include,82,exclude,4,0.4329268292682927,TRUE,exclude
23.06.22,12:32:49,246532124,test,2_3,prime_negative,3,62,1,217,include,82,exclude,4,0.4329268292682927,TRUE,exclude
23.06.22,12:32:49,246532124,test,2_4,prime_positive,4,28,1,210,include,82,exclude,4,0.4329268292682927,TRUE,exclude
23.06.22,12:32:49,246532124,test,2_5,prime_negative,2,26,1,219,include,82,exclude,4,0.4329268292682927,TRUE,exclude
23.06.22,12:32:49,246532124,test,2_6,prime_negative,2,68,1,145,include,82,exclude,4,0.4329268292682927,TRUE,exclude
23.06.22,12:32:49,246532124,test,2_7,prime_positive,3,22,1,226,include,82,exclude,4,0.4329268292682927,TRUE,exclude
23.06.22,12:32:49,246532124,test,2_8,prime_negative,4,12,1,202,include,82,exclude,4,0.4329268292682927,TRUE,exclude
23.06.22,12:32:49,246532124,test,2_9,prime_positive,2,40,1,201,include,82,exclude,4,0.4329268292682927,TRUE,exclude
23.06.22,12:32:49,246532124,test,2_10,prime_negative,1,57,1,193,include,82,exclude,4,0.4329268292682927,TRUE,exclude
23.06.22,12:32:49,246532124,test,2_11,prime_positive,3,5,1,193,include,82,exclude,4,0.4329268292682927,TRUE,exclude
23.06.22,12:32:49,246532124,test,2_12,prime_positive,2,39,1,193,include,82,exclude,4,0.4329268292682927,TRUE,exclude
23.06.22,12:32:49,246532124,test,2_13,prime_negative,3,32,1,234,include,82,exclude,4,0.4329268292682927,TRUE,exclude
23.06.22,12:32:49,246532124,test,2_14,prime_negative,4,45,1,235,include,82,exclude,4,0.4329268292682927,TRUE,exclude
23.06.22,12:32:49,246532124,test,2_15,prime_positive,1,69,1,193,include,82,exclude,4,0.4329268292682927,TRUE,exclude
23.06.22,12:32:49,246532124,test,2_16,prime_positive,4,10,1,261,include,82,exclude,4,0.4329268292682927,TRUE,exclude
23.06.22,12:32:49,246532124,test,2_17,prime_positive,4,29,1,261,include,82,exclude,4,0.4329268292682927,TRUE,exclude
23.06.22,12:32:49,246532124,test,2_18,prime_negative,1,27,1,402,include,82,exclude,4,0.4329268292682927,TRUE,exclude
23.06.22,12:32:49,246532124,test,2_19,prime_negative,3,21,1,303,include,82,exclude,4,0.4329268292682927,TRUE,exclude
23.06.22,12:32:49,246532124,test,2_20,prime_positive,1,16,1,192,include,82,exclude,4,0.4329268292682927,TRUE,exclude
23.06.22,12:32:49,246532124,test,2_21,prime_positive,3,38,1,222,include,82,exclude,4,0.4329268292682927,TRUE,exclude
23.06.22,12:32:49,246532124,test,2_22,prime_positive,2,44,1,311,include,82,exclude,4,0.4329268292682927,TRUE,exclude
23.06.22,12:32:49,246532124,test,2_23,prime_positive,1,47,1,202,include,82,exclude,4,0.4329268292682927,TRUE,exclude
23.06.22,12:32:49,246532124,test,2_24,prime_positive,4,25,1,259,include,82,exclude,4,0.4329268292682927,TRUE,exclude
23.06.22,12:32:49,246532124,test,2_25,prime_negative,2,36,0,636,include,82,exclude,4,0.4329268292682927,TRUE,exclude
23.06.22,12:32:49,246532124,test,2_26,prime_negative,3,8,1,395,include,82,exclude,4,0.4329268292682927,TRUE,exclude
23.06.22,12:32:49,246532124,test,2_27,prime_positive,3,63,1,319,include,82,exclude,4,0.4329268292682927,TRUE,exclude
23.06.22,12:32:49,246532124,test,2_28,prime_negative,2,13,1,159,include,82,exclude,4,0.4329268292682927,TRUE,exclude
23.06.22,12:32:49,246532124,test,2_29,prime_negative,4,49,1,218,include,82,exclude,4,0.4329268292682927,TRUE,exclude
23.06.22,12:32:49,246532124,test,2_30,prime_positive,2,46,1,218,include,82,exclude,4,0.4329268292682927,TRUE,exclude
23.06.22,12:32:49,246532124,test,2_31,prime_negative,1,52,1,218,include,82,exclude,4,0.4329268292682927,TRUE,exclude
23.06.22,12:32:49,246532124,test,2_32,prime_positive,1,53,1,226,include,82,exclude,4,0.4329268292682927,TRUE,exclude
23.06.22,12:32:49,246532124,test,2_33,prime_negative,3,51,1,184,include,82,exclude,4,0.4329268292682927,TRUE,exclude
23.06.22,12:32:49,246532124,test,2_34,prime_positive,3,55,1,193,include,82,exclude,4,0.4329268292682927,TRUE,exclude
23.06.22,12:32:49,246532124,test,2_35,prime_positive,4,1,1,218,include,82,exclude,4,0.4329268292682927,TRUE,exclude
23.06.22,12:32:49,246532124,test,2_36,prime_negative,2,24,1,177,include,82,exclude,4,0.4329268292682927,TRUE,exclude
23.06.22,12:32:49,246532124,test,2_37,prime_positive,2,6,1,235,include,82,exclude,4,0.4329268292682927,TRUE,exclude
23.06.22,12:32:49,246532124,test,2_38,prime_positive,1,35,1,218,include,82,exclude,4,0.4329268292682927,TRUE,exclude
23.06.22,12:32:49,246532124,test,2_39,prime_negative,4,15,1,218,include,82,exclude,4,0.4329268292682927,TRUE,exclude
23.06.22,12:32:49,246532124,test,2_40,prime_negative,1,50,1,201,include,82,exclude,4,0.4329268292682927,TRUE,exclude
23.06.22,12:32:49,246532124,test,2_41,prime_positive,3,64,1,277,include,82,exclude,4,0.4329268292682927,TRUE,exclude
23.06.22,12:32:49,246532124,test,2_42,prime_negative,3,67,1,168,include,82,exclude,4,0.4329268292682927,TRUE,exclude
23.06.22,12:32:49,246532124,test,2_43,prime_negative,2,9,1,136,include,82,exclude,4,0.4329268292682927,TRUE,exclude
23.06.22,12:32:49,246532124,test,2_44,prime_positive,2,37,1,1052,include,82,exclude,4,0.4329268292682927,TRUE,exclude
23.06.22,12:32:49,246532124,test,2_45,prime_negative,1,54,1,352,include,82,exclude,4,0.4329268292682927,TRUE,exclude
23.06.22,12:32:49,246532124,test,2_46,prime_positive,4,33,1,201,include,82,exclude,4,0.4329268292682927,TRUE,exclude
23.06.22,12:32:49,246532124,test,2_47,prime_negative,4,58,1,394,include,82,exclude,4,0.4329268292682927,TRUE,exclude
23.06.22,12:32:49,246532124,test,2_48,prime_positive,1,70,1,293,include,82,exclude,4,0.4329268292682927,TRUE,exclude
23.06.22,12:32:49,246532124,test,2_49,prime_negative,3,41,1,201,include,82,exclude,4,0.4329268292682927,TRUE,exclude
23.06.22,12:32:49,246532124,test,2_50,prime_positive,2,71,1,167,include,82,exclude,4,0.4329268292682927,TRUE,exclude
23.06.22,12:32:49,246532124,test,2_51,prime_positive,3,42,1,168,include,82,exclude,4,0.4329268292682927,TRUE,exclude
23.06.22,12:32:49,246532124,test,2_52,prime_negative,2,61,1,219,include,82,exclude,4,0.4329268292682927,TRUE,exclude
23.06.22,12:32:49,246532124,test,2_53,prime_negative,1,2,1,202,include,82,exclude,4,0.4329268292682927,TRUE,exclude
23.06.22,12:32:49,246532124,test,2_54,prime_positive,4,56,1,251,include,82,exclude,4,0.4329268292682927,TRUE,exclude
23.06.22,12:32:49,246532124,test,2_55,prime_negative,4,65,1,318,include,82,exclude,4,0.4329268292682927,TRUE,exclude
23.06.22,12:32:49,246532124,test,2_56,prime_negative,4,30,1,201,include,82,exclude,4,0.4329268292682927,TRUE,exclude
23.06.22,12:32:49,246532124,test,2_57,prime_positive,4,19,1,226,include,82,exclude,4,0.4329268292682927,TRUE,exclude
23.06.22,12:32:49,246532124,test,2_58,prime_negative,1,20,1,200,include,82,exclude,4,0.4329268292682927,TRUE,exclude
23.06.22,12:32:49,246532124,test,2_59,prime_negative,3,18,1,192,include,82,exclude,4,0.4329268292682927,TRUE,exclude
23.06.22,12:32:49,246532124,test,2_60,prime_negative,2,7,1,201,include,82,exclude,4,0.4329268292682927,TRUE,exclude
23.06.22,12:32:49,246532124,test,2_61,prime_negative,3,4,1,26,include,82,exclude,4,0.4329268292682927,TRUE,exclude
23.06.22,12:32:49,246532124,test,2_62,prime_positive,1,48,1,167,include,82,exclude,4,0.4329268292682927,TRUE,exclude
23.06.22,12:32:49,246532124,test,2_63,prime_positive,3,23,1,251,include,82,exclude,4,0.4329268292682927,TRUE,exclude
23.06.22,12:32:49,246532124,test,2_64,prime_positive,2,8,1,420,include,82,exclude,4,0.4329268292682927,TRUE,exclude
23.06.22,12:32:49,246532124,test,2_65,prime_positive,4,10,1,378,include,82,exclude,4,0.4329268292682927,TRUE,exclude
23.06.22,12:32:49,246532124,test,2_66,prime_positive,3,30,1,235,include,82,exclude,4,0.4329268292682927,TRUE,exclude
23.06.22,12:32:49,246532124,test,2_67,prime_positive,2,57,1,227,include,82,exclude,4,0.4329268292682927,TRUE,exclude
23.06.22,12:32:49,246532124,test,2_68,prime_positive,1,26,1,251,include,82,exclude,4,0.4329268292682927,TRUE,exclude
23.06.22,12:32:49,246532124,test,2_69,prime_negative,1,2,1,235,include,82,exclude,4,0.4329268292682927,TRUE,exclude
23.06.22,12:32:49,246532124,test,2_70,prime_negative,4,20,1,226,include,82,exclude,4,0.4329268292682927,TRUE,exclude
23.06.22,12:32:49,246532124,test,2_71,prime_positive,4,38,1,193,include,82,exclude,4,0.4329268292682927,TRUE,exclude
23.06.22,12:32:49,246532124,test,2_72,prime_negative,2,14,1,243,include,82,exclude,4,0.4329268292682927,TRUE,exclude
23.06.22,12:32:49,246532124,test,2_73,prime_negative,2,51,1,269,include,82,exclude,4,0.4329268292682927,TRUE,exclude
23.06.22,12:35:27,469672453,practice,1_4,prime_positive_practice,0,0,0,6640,include,82,include,1.3333333333333333,0.12195121951219512,FALSE,include
23.06.22,12:35:27,469672453,practice,1_5,prime_positive_practice,0,0,1,2593,include,82,include,1.3333333333333333,0.12195121951219512,TRUE,exclude
23.06.22,12:35:27,469672453,practice,1_6,prime_negative_practice,0,0,0,2072,include,82,include,1.3333333333333333,0.12195121951219512,TRUE,exclude
23.06.22,12:35:27,469672453,practice,1_7,prime_positive_practice,0,0,1,1190,include,82,include,1.3333333333333333,0.12195121951219512,TRUE,exclude
23.06.22,12:35:27,469672453,practice,1_8,prime_negative_practice,0,0,1,1840,include,82,include,1.3333333333333333,0.12195121951219512,TRUE,exclude
23.06.22,12:35:27,469672453,practice,1_9,prime_positive_practice,0,0,0,2761,include,82,include,1.3333333333333333,0.12195121951219512,TRUE,exclude
23.06.22,12:35:27,469672453,practice,1_10,prime_negative_practice,0,0,1,1959,include,82,include,1.3333333333333333,0.12195121951219512,TRUE,exclude
23.06.22,12:35:27,469672453,practice,1_11,prime_negative_practice,0,0,1,3342,include,82,include,1.3333333333333333,0.12195121951219512,TRUE,exclude
23.06.22,12:35:27,469672453,practice,1_12,prime_positive_practice,0,0,0,1394,include,82,include,1.3333333333333333,0.12195121951219512,TRUE,exclude
23.06.22,12:35:27,469672453,practice,1_13,prime_negative_practice,0,0,1,1420,include,82,include,1.3333333333333333,0.12195121951219512,TRUE,exclude
23.06.22,12:35:27,469672453,test,2_2,prime_negative,2,9,1,1145,include,82,include,1.3333333333333333,0.12195121951219512,TRUE,exclude
23.06.22,12:35:27,469672453,test,2_3,prime_positive,4,26,1,867,include,82,include,1.3333333333333333,0.12195121951219512,TRUE,exclude
23.06.22,12:35:27,469672453,test,2_4,prime_negative,4,48,1,1252,include,82,include,1.3333333333333333,0.12195121951219512,TRUE,exclude
23.06.22,12:35:27,469672453,test,2_5,prime_negative,3,13,1,824,include,82,include,1.3333333333333333,0.12195121951219512,TRUE,exclude
23.06.22,12:35:27,469672453,test,2_6,prime_negative,2,22,1,452,include,82,include,1.3333333333333333,0.12195121951219512,TRUE,exclude
23.06.22,12:35:27,469672453,test,2_7,prime_negative,3,53,1,461,include,82,include,1.3333333333333333,0.12195121951219512,TRUE,exclude
23.06.22,12:35:27,469672453,test,2_8,prime_negative,1,38,1,513,include,82,include,1.3333333333333333,0.12195121951219512,TRUE,exclude
23.06.22,12:35:27,469672453,test,2_9,prime_negative,4,18,0,880,include,82,include,1.3333333333333333,0.12195121951219512,TRUE,exclude
23.06.22,12:35:27,469672453,test,2_10,prime_negative,2,72,0,1317,include,82,include,1.3333333333333333,0.12195121951219512,TRUE,exclude
23.06.22,12:35:27,469672453,test,2_11,prime_negative,4,36,0,557,include,82,include,1.3333333333333333,0.12195121951219512,TRUE,exclude
23.06.22,12:35:27,469672453,test,2_12,prime_positive,2,39,0,2754,include,82,include,1.3333333333333333,0.12195121951219512,TRUE,exclude
23.06.22,12:35:27,469672453,test,2_13,prime_negative,1,51,1,714,include,82,include,1.3333333333333333,0.12195121951219512,TRUE,exclude
23.06.22,12:35:27,469672453,test,2_14,prime_negative,3,65,1,579,include,82,include,1.3333333333333333,0.12195121951219512,TRUE,exclude
23.06.22,12:35:27,469672453,test,2_15,prime_negative,4,37,0,1023,include,82,include,1.3333333333333333,0.12195121951219512,TRUE,exclude
23.06.22,12:35:27,469672453,test,2_16,prime_positive,3,5,0,827,include,82,include,1.3333333333333333,0.12195121951219512,TRUE,exclude
23.06.22,12:35:27,469672453,test,2_17,prime_positive,3,32,0,430,include,82,include,1.3333333333333333,0.12195121951219512,TRUE,exclude
23.06.22,12:35:27,469672453,test,2_18,prime_negative,3,29,1,714,include,82,include,1.3333333333333333,0.12195121951219512,TRUE,exclude
23.06.22,12:35:27,469672453,test,2_19,prime_positive,1,63,0,1027,include,82,include,1.3333333333333333,0.12195121951219512,TRUE,exclude
23.06.22,12:35:27,469672453,test,2_20,prime_negative,1,44,1,1853,include,82,include,1.3333333333333333,0.12195121951219512,TRUE,exclude
23.06.22,12:35:27,469672453,test,2_21,prime_negative,2,62,1,1207,include,82,include,1.3333333333333333,0.12195121951219512,TRUE,exclude
23.06.22,12:35:27,469672453,test,2_22,prime_positive,4,20,1,439,include,82,include,1.3333333333333333,0.12195121951219512,TRUE,exclude
23.06.22,12:35:27,469672453,test,2_23,prime_negative,1,19,1,344,include,82,include,1.3333333333333333,0.12195121951219512,TRUE,exclude
23.06.22,12:35:27,469672453,test,2_24,prime_positive,2,1,0,446,include,82,include,1.3333333333333333,0.12195121951219512,TRUE,exclude
23.06.22,12:35:27,469672453,test,2_25,prime_negative,4,66,1,1272,include,82,include,1.3333333333333333,0.12195121951219512,TRUE,exclude
23.06.22,12:35:27,469672453,test,2_26,prime_negative,3,4,1,536,include,82,include,1.3333333333333333,0.12195121951219512,TRUE,exclude
23.06.22,12:35:27,469672453,test,2_27,prime_negative,2,45,1,663,include,82,include,1.3333333333333333,0.12195121951219512,TRUE,exclude
23.06.22,12:35:27,469672453,test,2_28,prime_negative,2,70,1,627,include,82,include,1.3333333333333333,0.12195121951219512,TRUE,exclude
23.06.22,12:35:27,469672453,test,2_29,prime_positive,4,50,1,305,include,82,include,1.3333333333333333,0.12195121951219512,TRUE,exclude
23.06.22,12:35:27,469672453,test,2_30,prime_positive,3,68,1,1645,include,82,include,1.3333333333333333,0.12195121951219512,TRUE,exclude
23.06.22,12:35:27,469672453,test,2_31,prime_negative,4,33,1,587,include,82,include,1.3333333333333333,0.12195121951219512,TRUE,exclude
23.06.22,12:35:27,469672453,test,2_32,prime_positive,1,15,0,723,include,82,include,1.3333333333333333,0.12195121951219512,TRUE,exclude
23.06.22,12:35:27,469672453,test,2_33,prime_positive,2,46,0,538,include,82,include,1.3333333333333333,0.12195121951219512,TRUE,exclude
23.06.22,12:35:27,469672453,test,2_34,prime_positive,2,47,0,329,include,82,include,1.3333333333333333,0.12195121951219512,TRUE,exclude
23.06.22,12:35:27,469672453,test,2_35,prime_positive,1,64,0,443,include,82,include,1.3333333333333333,0.12195121951219512,TRUE,exclude
23.06.22,12:35:27,469672453,test,2_36,prime_positive,4,8,1,402,include,82,include,1.3333333333333333,0.12195121951219512,TRUE,exclude
23.06.22,12:35:27,469672453,test,2_37,prime_positive,3,3,0,1276,include,82,include,1.3333333333333333,0.12195121951219512,TRUE,exclude
23.06.22,12:35:27,469672453,test,2_38,prime_positive,2,61,0,870,include,82,include,1.3333333333333333,0.12195121951219512,TRUE,exclude
23.06.22,12:35:27,469672453,test,2_39,prime_positive,4,42,1,416,include,82,include,1.3333333333333333,0.12195121951219512,TRUE,exclude
23.06.22,12:35:27,469672453,test,2_40,prime_negative,3,17,1,753,include,82,include,1.3333333333333333,0.12195121951219512,TRUE,exclude
23.06.22,12:35:27,469672453,test,2_41,prime_positive,1,56,0,546,include,82,include,1.3333333333333333,0.12195121951219512,TRUE,exclude
23.06.22,12:35:27,469672453,test,2_42,prime_positive,3,12,0,2213,include,82,include,1.3333333333333333,0.12195121951219512,TRUE,exclude
23.06.22,12:35:27,469672453,test,2_43,prime_positive,4,55,1,399,include,82,include,1.3333333333333333,0.12195121951219512,TRUE,exclude
23.06.22,12:35:27,469672453,test,2_44,prime_negative,1,41,1,1017,include,82,include,1.3333333333333333,0.12195121951219512,TRUE,exclude
23.06.22,12:35:27,469672453,test,2_45,prime_negative,1,67,1,405,include,82,include,1.3333333333333333,0.12195121951219512,TRUE,exclude
23.06.22,12:35:27,469672453,test,2_46,prime_positive,2,35,0,322,include,82,include,1.3333333333333333,0.12195121951219512,TRUE,exclude
23.06.22,12:35:27,469672453,test,2_47,prime_negative,3,52,1,1975,include,82,include,1.3333333333333333,0.12195121951219512,TRUE,exclude
23.06.22,12:35:27,469672453,test,2_48,prime_positive,3,60,0,776,include,82,include,1.3333333333333333,0.12195121951219512,TRUE,exclude
23.06.22,12:35:27,469672453,test,2_49,prime_negative,2,27,1,2417,include,82,include,1.3333333333333333,0.12195121951219512,TRUE,exclude
23.06.22,12:35:27,469672453,test,2_50,prime_positive,1,34,0,345,include,82,include,1.3333333333333333,0.12195121951219512,TRUE,exclude
23.06.22,12:35:27,469672453,test,2_51,prime_negative,4,40,1,677,include,82,include,1.3333333333333333,0.12195121951219512,TRUE,exclude
23.06.22,12:35:27,469672453,test,2_52,prime_negative,2,2,1,960,include,82,include,1.3333333333333333,0.12195121951219512,TRUE,exclude
23.06.22,12:35:27,469672453,test,2_53,prime_positive,2,28,0,512,include,82,include,1.3333333333333333,0.12195121951219512,TRUE,exclude
23.06.22,12:35:27,469672453,test,2_54,prime_positive,3,21,0,404,include,82,include,1.3333333333333333,0.12195121951219512,TRUE,exclude
23.06.22,12:35:27,469672453,test,2_55,prime_negative,4,25,1,736,include,82,include,1.3333333333333333,0.12195121951219512,TRUE,exclude
23.06.22,12:35:27,469672453,test,2_56,prime_positive,4,58,1,322,include,82,include,1.3333333333333333,0.12195121951219512,TRUE,exclude
23.06.22,12:35:27,469672453,test,2_57,prime_negative,3,10,0,579,include,82,include,1.3333333333333333,0.12195121951219512,TRUE,exclude
23.06.22,12:35:27,469672453,test,2_58,prime_positive,1,14,0,1290,include,82,include,1.3333333333333333,0.12195121951219512,TRUE,exclude
23.06.22,12:35:27,469672453,test,2_59,prime_positive,1,24,0,347,include,82,include,1.3333333333333333,0.12195121951219512,TRUE,exclude
23.06.22,12:35:27,469672453,test,2_60,prime_negative,1,30,1,776,include,82,include,1.3333333333333333,0.12195121951219512,TRUE,exclude
23.06.22,12:35:27,469672453,test,2_61,prime_positive,2,43,0,465,include,82,include,1.3333333333333333,0.12195121951219512,TRUE,exclude
23.06.22,12:35:27,469672453,test,2_62,prime_positive,4,16,1,458,include,82,include,1.3333333333333333,0.12195121951219512,TRUE,exclude
23.06.22,12:35:27,469672453,test,2_63,prime_negative,3,11,1,4233,include,82,include,1.3333333333333333,0.12195121951219512,TRUE,exclude
23.06.22,12:35:27,469672453,test,2_64,prime_positive,3,58,0,536,include,82,include,1.3333333333333333,0.12195121951219512,TRUE,exclude
23.06.22,12:35:27,469672453,test,2_65,prime_positive,1,31,0,443,include,82,include,1.3333333333333333,0.12195121951219512,TRUE,exclude
23.06.22,12:35:27,469672453,test,2_66,prime_negative,2,54,1,888,include,82,include,1.3333333333333333,0.12195121951219512,TRUE,exclude
23.06.22,12:35:27,469672453,test,2_67,prime_negative,1,3,0,388,include,82,include,1.3333333333333333,0.12195121951219512,TRUE,exclude
23.06.22,12:35:27,469672453,test,2_68,prime_negative,4,68,0,1888,include,82,include,1.3333333333333333,0.12195121951219512,TRUE,exclude
23.06.22,12:35:27,469672453,test,2_69,prime_positive,4,70,1,954,include,82,include,1.3333333333333333,0.12195121951219512,TRUE,exclude
23.06.22,12:35:27,469672453,test,2_70,prime_negative,2,7,0,475,include,82,include,1.3333333333333333,0.12195121951219512,TRUE,exclude
23.06.22,12:35:27,469672453,test,2_71,prime_positive,3,43,0,396,include,82,include,1.3333333333333333,0.12195121951219512,TRUE,exclude
23.06.22,12:35:27,469672453,test,2_72,prime_positive,2,21,0,499,include,82,include,1.3333333333333333,0.12195121951219512,TRUE,exclude
23.06.22,12:35:27,469672453,test,2_73,prime_positive,1,22,0,340,include,82,include,1.3333333333333333,0.12195121951219512,TRUE,exclude
23.06.22,12:33:59,902223169,practice,1_4,prime_positive_practice,0,0,1,2322,include,82,include,2.6666666666666665,0.2682926829268293,FALSE,include
23.06.22,12:33:59,902223169,practice,1_5,prime_positive_practice,0,0,1,1530,include,82,include,2.6666666666666665,0.2682926829268293,TRUE,exclude
23.06.22,12:33:59,902223169,practice,1_6,prime_negative_practice,0,0,0,2170,include,82,include,2.6666666666666665,0.2682926829268293,TRUE,exclude
23.06.22,12:33:59,902223169,practice,1_7,prime_positive_practice,0,0,0,611,include,82,include,2.6666666666666665,0.2682926829268293,TRUE,exclude
23.06.22,12:33:59,902223169,practice,1_8,prime_negative_practice,0,0,0,530,include,82,include,2.6666666666666665,0.2682926829268293,TRUE,exclude
23.06.22,12:33:59,902223169,practice,1_9,prime_negative_practice,0,0,1,806,include,82,include,2.6666666666666665,0.2682926829268293,TRUE,exclude
23.06.22,12:33:59,902223169,practice,1_10,prime_positive_practice,0,0,0,1002,include,82,include,2.6666666666666665,0.2682926829268293,TRUE,exclude
23.06.22,12:33:59,902223169,practice,1_11,prime_negative_practice,0,0,1,462,include,82,include,2.6666666666666665,0.2682926829268293,TRUE,exclude
23.06.22,12:33:59,902223169,practice,1_12,prime_positive_practice,0,0,0,1642,include,82,include,2.6666666666666665,0.2682926829268293,TRUE,exclude
23.06.22,12:33:59,902223169,practice,1_13,prime_negative_practice,0,0,1,604,include,82,include,2.6666666666666665,0.2682926829268293,TRUE,exclude
23.06.22,12:33:59,902223169,test,2_2,prime_positive,3,41,0,3329,include,82,include,2.6666666666666665,0.2682926829268293,TRUE,exclude
23.06.22,12:33:59,902223169,test,2_3,prime_negative,1,40,1,1403,include,82,include,2.6666666666666665,0.2682926829268293,TRUE,exclude
23.06.22,12:33:59,902223169,test,2_4,prime_positive,4,47,1,1670,include,82,include,2.6666666666666665,0.2682926829268293,TRUE,exclude
23.06.22,12:33:59,902223169,test,2_5,prime_positive,1,42,1,709,include,82,include,2.6666666666666665,0.2682926829268293,TRUE,exclude
23.06.22,12:33:59,902223169,test,2_6,prime_negative,2,62,0,1165,include,82,include,2.6666666666666665,0.2682926829268293,TRUE,exclude
23.06.22,12:33:59,902223169,test,2_7,prime_positive,2,12,1,1795,include,82,include,2.6666666666666665,0.2682926829268293,TRUE,exclude
23.06.22,12:33:59,902223169,test,2_8,prime_negative,4,30,1,1314,include,82,include,2.6666666666666665,0.2682926829268293,TRUE,exclude
23.06.22,12:33:59,902223169,test,2_9,prime_positive,3,21,0,1225,include,82,include,2.6666666666666665,0.2682926829268293,TRUE,exclude
23.06.22,12:33:59,902223169,test,2_10,prime_positive,4,9,1,1044,include,82,include,2.6666666666666665,0.2682926829268293,TRUE,exclude
23.06.22,12:33:59,902223169,test,2_11,prime_positive,1,22,1,678,include,82,include,2.6666666666666665,0.2682926829268293,TRUE,exclude
23.06.22,12:33:59,902223169,test,2_12,prime_negative,4,53,0,556,include,82,include,2.6666666666666665,0.2682926829268293,TRUE,exclude
23.06.22,12:33:59,902223169,test,2_13,prime_positive,2,70,1,1325,include,82,include,2.6666666666666665,0.2682926829268293,TRUE,exclude
23.06.22,12:33:59,902223169,test,2_14,prime_positive,4,34,0,642,include,82,include,2.6666666666666665,0.2682926829268293,TRUE,exclude
23.06.22,12:33:59,902223169,test,2_15,prime_negative,1,2,1,1262,include,82,include,2.6666666666666665,0.2682926829268293,TRUE,exclude
23.06.22,12:33:59,902223169,test,2_16,prime_negative,3,66,0,1099,include,82,include,2.6666666666666665,0.2682926829268293,TRUE,exclude
23.06.22,12:33:59,902223169,test,2_17,prime_positive,1,44,0,914,include,82,include,2.6666666666666665,0.2682926829268293,TRUE,exclude
23.06.22,12:33:59,902223169,test,2_18,prime_negative,2,45,0,807,include,82,include,2.6666666666666665,0.2682926829268293,TRUE,exclude
23.06.22,12:33:59,902223169,test,2_19,prime_negative,4,33,1,1720,include,82,include,2.6666666666666665,0.2682926829268293,TRUE,exclude
23.06.22,12:33:59,902223169,test,2_20,prime_negative,2,69,0,944,include,82,include,2.6666666666666665,0.2682926829268293,TRUE,exclude
23.06.22,12:33:59,902223169,test,2_21,prime_negative,1,3,0,2329,include,82,include,2.6666666666666665,0.2682926829268293,TRUE,exclude
23.06.22,12:33:59,902223169,test,2_22,prime_negative,3,52,0,909,include,82,include,2.6666666666666665,0.2682926829268293,TRUE,exclude
23.06.22,12:33:59,902223169,test,2_23,prime_negative,1,71,0,1203,include,82,include,2.6666666666666665,0.2682926829268293,TRUE,exclude
23.06.22,12:33:59,902223169,test,2_24,prime_positive,3,65,1,1036,include,82,include,2.6666666666666665,0.2682926829268293,TRUE,exclude
23.06.22,12:33:59,902223169,test,2_25,prime_negative,2,7,1,751,include,82,include,2.6666666666666665,0.2682926829268293,TRUE,exclude
23.06.22,12:33:59,902223169,test,2_26,prime_positive,1,64,1,871,include,82,include,2.6666666666666665,0.2682926829268293,TRUE,exclude
23.06.22,12:33:59,902223169,test,2_27,prime_negative,4,43,0,765,include,82,include,2.6666666666666665,0.2682926829268293,TRUE,exclude
23.06.22,12:33:59,902223169,test,2_28,prime_negative,3,37,0,712,include,82,include,2.6666666666666665,0.2682926829268293,TRUE,exclude
23.06.22,12:33:59,902223169,test,2_29,prime_positive,3,58,0,616,include,82,include,2.6666666666666665,0.2682926829268293,TRUE,exclude
23.06.22,12:33:59,902223169,test,2_30,prime_positive,4,46,1,964,include,82,include,2.6666666666666665,0.2682926829268293,TRUE,exclude
23.06.22,12:33:59,902223169,test,2_31,prime_negative,4,31,1,2458,include,82,include,2.6666666666666665,0.2682926829268293,TRUE,exclude
23.06.22,12:33:59,902223169,test,2_32,prime_negative,2,26,0,891,include,82,include,2.6666666666666665,0.2682926829268293,TRUE,exclude
23.06.22,12:33:59,902223169,test,2_33,prime_positive,2,17,1,506,include,82,include,2.6666666666666665,0.2682926829268293,TRUE,exclude
23.06.22,12:33:59,902223169,test,2_34,prime_positive,1,54,1,2315,include,82,include,2.6666666666666665,0.2682926829268293,TRUE,exclude
23.06.22,12:33:59,902223169,test,2_35,prime_negative,1,57,1,664,include,82,include,2.6666666666666665,0.2682926829268293,TRUE,exclude
23.06.22,12:33:59,902223169,test,2_36,prime_positive,2,25,1,1254,include,82,include,2.6666666666666665,0.2682926829268293,TRUE,exclude
23.06.22,12:33:59,902223169,test,2_37,prime_negative,3,38,1,806,include,82,include,2.6666666666666665,0.2682926829268293,TRUE,exclude
23.06.22,12:33:59,902223169,test,2_38,prime_negative,3,10,0,492,include,82,include,2.6666666666666665,0.2682926829268293,TRUE,exclude
23.06.22,12:33:59,902223169,test,2_39,prime_negative,2,18,0,530,include,82,include,2.6666666666666665,0.2682926829268293,TRUE,exclude
23.06.22,12:33:59,902223169,test,2_40,prime_positive,4,27,1,710,include,82,include,2.6666666666666665,0.2682926829268293,TRUE,exclude
23.06.22,12:33:59,902223169,test,2_41,prime_positive,3,63,0,472,include,82,include,2.6666666666666665,0.2682926829268293,TRUE,exclude
23.06.22,12:33:59,902223169,test,2_42,prime_negative,1,36,1,962,include,82,include,2.6666666666666665,0.2682926829268293,TRUE,exclude
23.06.22,12:33:59,902223169,test,2_43,prime_positive,3,72,0,920,include,82,include,2.6666666666666665,0.2682926829268293,TRUE,exclude
23.06.22,12:33:59,902223169,test,2_44,prime_negative,4,49,0,899,include,82,include,2.6666666666666665,0.2682926829268293,TRUE,exclude
23.06.22,12:33:59,902223169,test,2_45,prime_positive,4,55,1,1877,include,82,include,2.6666666666666665,0.2682926829268293,TRUE,exclude
23.06.22,12:33:59,902223169,test,2_46,prime_positive,2,35,0,1176,include,82,include,2.6666666666666665,0.2682926829268293,TRUE,exclude
23.06.22,12:33:59,902223169,test,2_47,prime_positive,1,60,1,1237,include,82,include,2.6666666666666665,0.2682926829268293,TRUE,exclude
23.06.22,12:33:59,902223169,test,2_48,prime_negative,3,59,0,452,include,82,include,2.6666666666666665,0.2682926829268293,TRUE,exclude
23.06.22,12:33:59,902223169,test,2_49,prime_negative,2,14,0,1149,include,82,include,2.6666666666666665,0.2682926829268293,TRUE,exclude
23.06.22,12:33:59,902223169,test,2_50,prime_negative,1,15,1,1670,include,82,include,2.6666666666666665,0.2682926829268293,TRUE,exclude
23.06.22,12:33:59,902223169,test,2_51,prime_negative,4,11,1,1037,include,82,include,2.6666666666666665,0.2682926829268293,TRUE,exclude
23.06.22,12:33:59,902223169,test,2_52,prime_positive,3,29,1,491,include,82,include,2.6666666666666665,0.2682926829268293,TRUE,exclude
23.06.22,12:33:59,902223169,test,2_53,prime_positive,2,19,0,313,include,82,include,2.6666666666666665,0.2682926829268293,TRUE,exclude
23.06.22,12:33:59,902223169,test,2_54,prime_negative,2,8,0,537,include,82,include,2.6666666666666665,0.2682926829268293,TRUE,exclude
23.06.22,12:33:59,902223169,test,2_55,prime_positive,1,4,0,307,include,82,include,2.6666666666666665,0.2682926829268293,TRUE,exclude
23.06.22,12:33:59,902223169,test,2_56,prime_positive,4,39,1,405,include,82,include,2.6666666666666665,0.2682926829268293,TRUE,exclude
23.06.22,12:33:59,902223169,test,2_57,prime_positive,2,56,1,41169,include,82,include,2.6666666666666665,0.2682926829268293,TRUE,exclude
23.06.22,12:33:59,902223169,test,2_58,prime_negative,1,51,1,868,include,82,include,2.6666666666666665,0.2682926829268293,TRUE,exclude
23.06.22,12:33:59,902223169,test,2_59,prime_positive,1,16,0,3274,include,82,include,2.6666666666666665,0.2682926829268293,TRUE,exclude
23.06.22,12:33:59,902223169,test,2_60,prime_positive,4,28,0,602,include,82,include,2.6666666666666665,0.2682926829268293,TRUE,exclude
23.06.22,12:33:59,902223169,test,2_61,prime_negative,3,23,1,819,include,82,include,2.6666666666666665,0.2682926829268293,TRUE,exclude
23.06.22,12:33:59,902223169,test,2_62,prime_negative,4,6,1,760,include,82,include,2.6666666666666665,0.2682926829268293,TRUE,exclude
23.06.22,12:33:59,902223169,test,2_63,prime_positive,3,20,1,1663,include,82,include,2.6666666666666665,0.2682926829268293,TRUE,exclude
23.06.22,12:33:59,902223169,test,2_64,prime_negative,2,27,1,814,include,82,include,2.6666666666666665,0.2682926829268293,TRUE,exclude
23.06.22,12:33:59,902223169,test,2_65,prime_positive,3,9,1,598,include,82,include,2.6666666666666665,0.2682926829268293,TRUE,exclude
23.06.22,12:33:59,902223169,test,2_66,prime_positive,2,7,0,670,include,82,include,2.6666666666666665,0.2682926829268293,TRUE,exclude
23.06.22,12:33:59,902223169,test,2_67,prime_negative,4,28,0,1074,include,82,include,2.6666666666666665,0.2682926829268293,TRUE,exclude
23.06.22,12:33:59,902223169,test,2_68,prime_negative,3,52,0,1548,include,82,include,2.6666666666666665,0.2682926829268293,TRUE,exclude
23.06.22,12:33:59,902223169,test,2_69,prime_negative,1,46,1,477,include,82,include,2.6666666666666665,0.2682926829268293,TRUE,exclude
23.06.22,12:33:59,902223169,test,2_70,prime_negative,2,30,1,624,include,82,include,2.6666666666666665,0.2682926829268293,TRUE,exclude
23.06.22,12:33:59,902223169,test,2_71,prime_positive,4,10,0,1306,include,82,include,2.6666666666666665,0.2682926829268293,TRUE,exclude
23.06.22,12:33:59,902223169,test,2_72,prime_positive,1,49,1,974,include,82,include,2.6666666666666665,0.2682926829268293,TRUE,exclude
23.06.22,12:33:59,902223169,test,2_73,prime_positive,3,2,1,535,include,82,include,2.6666666666666665,0.2682926829268293,TRUE,exclude
23.06.22,13:37:13,637089700,practice,1_4,prime_positive_practice,0,0,1,2795,include,82,include,2,0.43902439024390244,FALSE,include
23.06.22,13:37:13,637089700,practice,1_5,prime_positive_practice,0,0,1,1687,include,82,include,2,0.43902439024390244,TRUE,exclude
23.06.22,13:37:13,637089700,practice,1_6,prime_positive_practice,0,0,1,770,include,82,include,2,0.43902439024390244,TRUE,exclude
23.06.22,13:37:13,637089700,practice,1_7,prime_positive_practice,0,0,1,647,include,82,include,2,0.43902439024390244,TRUE,exclude
23.06.22,13:37:13,637089700,practice,1_8,prime_negative_practice,0,0,1,548,include,82,include,2,0.43902439024390244,TRUE,exclude
23.06.22,13:37:13,637089700,practice,1_9,prime_negative_practice,0,0,1,555,include,82,include,2,0.43902439024390244,TRUE,exclude
23.06.22,13:37:13,637089700,practice,1_10,prime_negative_practice,0,0,1,530,include,82,include,2,0.43902439024390244,TRUE,exclude
23.06.22,13:37:13,637089700,practice,1_11,prime_negative_practice,0,0,1,635,include,82,include,2,0.43902439024390244,TRUE,exclude
23.06.22,13:37:13,637089700,practice,1_12,prime_positive_practice,0,0,1,601,include,82,include,2,0.43902439024390244,TRUE,exclude
23.06.22,13:37:13,637089700,practice,1_13,prime_negative_practice,0,0,1,900,include,82,include,2,0.43902439024390244,TRUE,exclude
23.06.22,13:37:13,637089700,test,2_2,prime_negative,3,11,1,471,include,82,include,2,0.43902439024390244,TRUE,exclude
23.06.22,13:37:13,637089700,test,2_3,prime_negative,2,71,1,424,include,82,include,2,0.43902439024390244,TRUE,exclude
23.06.22,13:37:13,637089700,test,2_4,prime_negative,4,6,1,423,include,82,include,2,0.43902439024390244,TRUE,exclude
23.06.22,13:37:13,637089700,test,2_5,prime_negative,4,33,1,438,include,82,include,2,0.43902439024390244,TRUE,exclude
23.06.22,13:37:13,637089700,test,2_6,prime_negative,1,60,1,471,include,82,include,2,0.43902439024390244,TRUE,exclude
23.06.22,13:37:13,637089700,test,2_7,prime_positive,2,40,1,392,include,82,include,2,0.43902439024390244,TRUE,exclude
23.06.22,13:37:13,637089700,test,2_8,prime_negative,2,15,1,543,include,82,include,2,0.43902439024390244,TRUE,exclude
23.06.22,13:37:13,637089700,test,2_9,prime_negative,3,25,1,481,include,82,include,2,0.43902439024390244,TRUE,exclude
23.06.22,13:37:13,637089700,test,2_10,prime_positive,3,38,1,438,include,82,include,2,0.43902439024390244,TRUE,exclude
23.06.22,13:37:13,637089700,test,2_11,prime_positive,4,18,1,500,include,82,include,2,0.43902439024390244,TRUE,exclude
23.06.22,13:37:13,637089700,test,2_12,prime_negative,1,3,1,511,include,82,include,2,0.43902439024390244,TRUE,exclude
23.06.22,13:37:13,637089700,test,2_13,prime_negative,3,55,1,407,include,82,include,2,0.43902439024390244,TRUE,exclude
23.06.22,13:37:13,637089700,test,2_14,prime_positive,2,28,1,366,include,82,include,2,0.43902439024390244,TRUE,exclude
23.06.22,13:37:13,637089700,test,2_15,prime_negative,2,62,1,388,include,82,include,2,0.43902439024390244,TRUE,exclude
23.06.22,13:37:13,637089700,test,2_16,prime_positive,1,72,1,386,include,82,include,2,0.43902439024390244,TRUE,exclude
23.06.22,13:37:13,637089700,test,2_17,prime_positive,4,61,1,452,include,82,include,2,0.43902439024390244,TRUE,exclude
23.06.22,13:37:13,637089700,test,2_18,prime_positive,3,31,1,424,include,82,include,2,0.43902439024390244,TRUE,exclude
23.06.22,13:37:13,637089700,test,2_19,prime_positive,4,4,1,426,include,82,include,2,0.43902439024390244,TRUE,exclude
23.06.22,13:37:13,637089700,test,2_20,prime_positive,2,66,1,361,include,82,include,2,0.43902439024390244,TRUE,exclude
23.06.22,13:37:13,637089700,test,2_21,prime_negative,4,51,1,388,include,82,include,2,0.43902439024390244,TRUE,exclude
23.06.22,13:37:13,637089700,test,2_22,prime_positive,1,49,1,333,include,82,include,2,0.43902439024390244,TRUE,exclude
23.06.22,13:37:13,637089700,test,2_23,prime_positive,3,69,1,465,include,82,include,2,0.43902439024390244,TRUE,exclude
23.06.22,13:37:13,637089700,test,2_24,prime_positive,2,23,1,719,include,82,include,2,0.43902439024390244,TRUE,exclude
23.06.22,13:37:13,637089700,test,2_25,prime_negative,3,68,1,518,include,82,include,2,0.43902439024390244,TRUE,exclude
23.06.22,13:37:13,637089700,test,2_26,prime_negative,2,1,1,395,include,82,include,2,0.43902439024390244,TRUE,exclude
23.06.22,13:37:13,637089700,test,2_27,prime_negative,1,67,1,485,include,82,include,2,0.43902439024390244,TRUE,exclude
23.06.22,13:37:13,637089700,test,2_28,prime_positive,3,13,1,508,include,82,include,2,0.43902439024390244,TRUE,exclude
23.06.22,13:37:13,637089700,test,2_29,prime_negative,4,44,1,395,include,82,include,2,0.43902439024390244,TRUE,exclude
23.06.22,13:37:13,637089700,test,2_30,prime_positive,4,46,1,423,include,82,include,2,0.43902439024390244,TRUE,exclude
23.06.22,13:37:13,637089700,test,2_31,prime_positive,1,14,1,322,include,82,include,2,0.43902439024390244,TRUE,exclude
23.06.22,13:37:13,637089700,test,2_32,prime_positive,2,9,1,672,include,82,include,2,0.43902439024390244,TRUE,exclude
23.06.22,13:37:13,637089700,test,2_33,prime_negative,4,57,1,339,include,82,include,2,0.43902439024390244,TRUE,exclude
23.06.22,13:37:13,637089700,test,2_34,prime_positive,3,24,1,275,include,82,include,2,0.43902439024390244,TRUE,exclude
23.06.22,13:37:13,637089700,test,2_35,prime_positive,4,21,1,286,include,82,include,2,0.43902439024390244,TRUE,exclude
23.06.22,13:37:13,637089700,test,2_36,prime_positive,1,29,1,262,include,82,include,2,0.43902439024390244,TRUE,exclude
23.06.22,13:37:13,637089700,test,2_37,prime_negative,2,2,1,276,include,82,include,2,0.43902439024390244,TRUE,exclude
23.06.22,13:37:13,637089700,test,2_38,prime_positive,4,10,1,214,include,82,include,2,0.43902439024390244,TRUE,exclude
23.06.22,13:37:13,637089700,test,2_39,prime_negative,1,16,1,240,include,82,include,2,0.43902439024390244,TRUE,exclude
23.06.22,13:37:13,637089700,test,2_40,prime_positive,2,35,1,276,include,82,include,2,0.43902439024390244,TRUE,exclude
23.06.22,13:37:13,637089700,test,2_41,prime_negative,3,27,1,228,include,82,include,2,0.43902439024390244,TRUE,exclude
23.06.22,13:37:13,637089700,test,2_42,prime_positive,3,50,1,215,include,82,include,2,0.43902439024390244,TRUE,exclude
23.06.22,13:37:13,637089700,test,2_43,prime_negative,1,58,1,195,include,82,include,2,0.43902439024390244,TRUE,exclude
23.06.22,13:37:13,637089700,test,2_44,prime_negative,3,59,1,194,include,82,include,2,0.43902439024390244,TRUE,exclude
23.06.22,13:37:13,637089700,test,2_45,prime_negative,4,32,1,258,include,82,include,2,0.43902439024390244,TRUE,exclude
23.06.22,13:37:13,637089700,test,2_46,prime_negative,2,53,1,289,include,82,include,2,0.43902439024390244,TRUE,exclude
23.06.22,13:37:13,637089700,test,2_47,prime_negative,1,30,1,245,include,82,include,2,0.43902439024390244,TRUE,exclude
23.06.22,13:37:13,637089700,test,2_48,prime_negative,4,19,1,253,include,82,include,2,0.43902439024390244,TRUE,exclude
23.06.22,13:37:13,637089700,test,2_49,prime_positive,1,70,1,268,include,82,include,2,0.43902439024390244,TRUE,exclude
23.06.22,13:37:13,637089700,test,2_50,prime_positive,2,20,1,253,include,82,include,2,0.43902439024390244,TRUE,exclude
23.06.22,13:37:13,637089700,test,2_51,prime_negative,3,47,1,274,include,82,include,2,0.43902439024390244,TRUE,exclude
23.06.22,13:37:13,637089700,test,2_52,prime_negative,2,43,1,291,include,82,include,2,0.43902439024390244,TRUE,exclude
23.06.22,13:37:13,637089700,test,2_53,prime_negative,1,5,1,484,include,82,include,2,0.43902439024390244,TRUE,exclude
23.06.22,13:37:13,637089700,test,2_54,prime_negative,3,36,1,432,include,82,include,2,0.43902439024390244,TRUE,exclude
23.06.22,13:37:13,637089700,test,2_55,prime_positive,1,22,1,578,include,82,include,2,0.43902439024390244,TRUE,exclude
23.06.22,13:37:13,637089700,test,2_56,prime_positive,4,48,1,420,include,82,include,2,0.43902439024390244,TRUE,exclude
23.06.22,13:37:13,637089700,test,2_57,prime_negative,4,64,1,317,include,82,include,2,0.43902439024390244,TRUE,exclude
23.06.22,13:37:13,637089700,test,2_58,prime_positive,3,54,1,306,include,82,include,2,0.43902439024390244,TRUE,exclude
23.06.22,13:37:13,637089700,test,2_59,prime_negative,2,12,1,397,include,82,include,2,0.43902439024390244,TRUE,exclude
23.06.22,13:37:13,637089700,test,2_60,prime_positive,3,63,1,311,include,82,include,2,0.43902439024390244,TRUE,exclude
23.06.22,13:37:13,637089700,test,2_61,prime_positive,1,52,1,252,include,82,include,2,0.43902439024390244,TRUE,exclude
23.06.22,13:37:13,637089700,test,2_62,prime_positive,2,45,1,255,include,82,include,2,0.43902439024390244,TRUE,exclude
23.06.22,13:37:13,637089700,test,2_63,prime_positive,4,41,1,269,include,82,include,2,0.43902439024390244,TRUE,exclude
23.06.22,13:37:13,637089700,test,2_64,prime_positive,4,36,1,290,include,82,include,2,0.43902439024390244,TRUE,exclude
23.06.22,13:37:13,637089700,test,2_65,prime_positive,2,71,1,878,include,82,include,2,0.43902439024390244,TRUE,exclude
23.06.22,13:37:13,637089700,test,2_66,prime_negative,3,32,1,374,include,82,include,2,0.43902439024390244,TRUE,exclude
23.06.22,13:37:13,637089700,test,2_67,prime_negative,1,37,1,269,include,82,include,2,0.43902439024390244,TRUE,exclude
23.06.22,13:37:13,637089700,test,2_68,prime_positive,3,45,1,269,include,82,include,2,0.43902439024390244,TRUE,exclude
23.06.22,13:37:13,637089700,test,2_69,prime_negative,2,7,1,281,include,82,include,2,0.43902439024390244,TRUE,exclude
23.06.22,13:37:13,637089700,test,2_70,prime_negative,4,13,1,332,include,82,include,2,0.43902439024390244,TRUE,exclude
23.06.22,13:37:13,637089700,test,2_71,prime_negative,4,6,1,215,include,82,include,2,0.43902439024390244,TRUE,exclude
23.06.22,13:37:13,637089700,test,2_72,prime_positive,1,41,1,219,include,82,include,2,0.43902439024390244,TRUE,exclude
23.06.22,13:37:13,637089700,test,2_73,prime_positive,1,63,1,201,include,82,include,2,0.43902439024390244,TRUE,exclude
23.06.22,12:37:38,4345805,practice,1_4,prime_positive_practice,0,0,0,7122,include,82,include,3,0.13414634146341464,FALSE,include
23.06.22,12:37:38,4345805,practice,1_5,prime_negative_practice,0,0,1,7007,include,82,include,3,0.13414634146341464,TRUE,exclude
23.06.22,12:37:38,4345805,practice,1_6,prime_positive_practice,0,0,0,1486,include,82,include,3,0.13414634146341464,TRUE,exclude
23.06.22,12:37:38,4345805,practice,1_7,prime_negative_practice,0,0,0,1748,include,82,include,3,0.13414634146341464,TRUE,exclude
23.06.22,12:37:38,4345805,practice,1_8,prime_positive_practice,0,0,1,1791,include,82,include,3,0.13414634146341464,TRUE,exclude
23.06.22,12:37:38,4345805,practice,1_9,prime_negative_practice,0,0,1,936,include,82,include,3,0.13414634146341464,TRUE,exclude
23.06.22,12:37:38,4345805,practice,1_10,prime_negative_practice,0,0,0,885,include,82,include,3,0.13414634146341464,TRUE,exclude
23.06.22,12:37:38,4345805,practice,1_11,prime_negative_practice,0,0,0,978,include,82,include,3,0.13414634146341464,TRUE,exclude
23.06.22,12:37:38,4345805,practice,1_12,prime_positive_practice,0,0,0,1336,include,82,include,3,0.13414634146341464,TRUE,exclude
23.06.22,12:37:38,4345805,practice,1_13,prime_positive_practice,0,0,0,813,include,82,include,3,0.13414634146341464,TRUE,exclude
23.06.22,12:37:38,4345805,test,2_2,prime_positive,3,67,1,967,include,82,include,3,0.13414634146341464,TRUE,exclude
23.06.22,12:37:38,4345805,test,2_3,prime_positive,2,48,0,483,include,82,include,3,0.13414634146341464,TRUE,exclude
23.06.22,12:37:38,4345805,test,2_4,prime_negative,2,64,1,495,include,82,include,3,0.13414634146341464,TRUE,exclude
23.06.22,12:37:38,4345805,test,2_5,prime_positive,1,42,0,1038,include,82,include,3,0.13414634146341464,TRUE,exclude
23.06.22,12:37:38,4345805,test,2_6,prime_positive,1,43,0,668,include,82,include,3,0.13414634146341464,TRUE,exclude
23.06.22,12:37:38,4345805,test,2_7,prime_negative,4,20,1,562,include,82,include,3,0.13414634146341464,TRUE,exclude
23.06.22,12:37:38,4345805,test,2_8,prime_positive,2,56,0,567,include,82,include,3,0.13414634146341464,TRUE,exclude
23.06.22,12:37:38,4345805,test,2_9,prime_negative,1,47,0,8919,include,82,include,3,0.13414634146341464,TRUE,exclude
23.06.22,12:37:38,4345805,test,2_10,prime_negative,3,32,1,2473,include,82,include,3,0.13414634146341464,TRUE,exclude
23.06.22,12:37:38,4345805,test,2_11,prime_positive,3,15,0,347,include,82,include,3,0.13414634146341464,TRUE,exclude
23.06.22,12:37:38,4345805,test,2_12,prime_positive,4,2,0,268,include,82,include,3,0.13414634146341464,TRUE,exclude
23.06.22,12:37:38,4345805,test,2_13,prime_positive,1,12,0,158,include,82,include,3,0.13414634146341464,TRUE,exclude
23.06.22,12:37:38,4345805,test,2_14,prime_positive,2,30,1,117,include,82,include,3,0.13414634146341464,TRUE,exclude
23.06.22,12:37:38,4345805,test,2_15,prime_negative,2,69,0,3,include,82,include,3,0.13414634146341464,TRUE,exclude
23.06.22,12:37:38,4345805,test,2_16,prime_negative,4,50,0,276,include,82,include,3,0.13414634146341464,TRUE,exclude
23.06.22,12:37:38,4345805,test,2_17,prime_positive,3,72,1,253,include,82,include,3,0.13414634146341464,TRUE,exclude
23.06.22,12:37:38,4345805,test,2_18,prime_negative,1,8,0,209,include,82,include,3,0.13414634146341464,TRUE,exclude
23.06.22,12:37:38,4345805,test,2_19,prime_positive,4,57,0,126,include,82,include,3,0.13414634146341464,TRUE,exclude
23.06.22,12:37:38,4345805,test,2_20,prime_negative,4,1,0,222,include,82,include,3,0.13414634146341464,TRUE,exclude
23.06.22,12:37:38,4345805,test,2_21,prime_positive,1,70,0,248,include,82,include,3,0.13414634146341464,TRUE,exclude
23.06.22,12:37:38,4345805,test,2_22,prime_negative,1,3,1,266,include,82,include,3,0.13414634146341464,TRUE,exclude
23.06.22,12:37:38,4345805,test,2_23,prime_positive,4,65,0,745,include,82,include,3,0.13414634146341464,TRUE,exclude
23.06.22,12:37:38,4345805,test,2_24,prime_negative,3,45,1,206,include,82,include,3,0.13414634146341464,TRUE,exclude
23.06.22,12:37:38,4345805,test,2_25,prime_positive,2,60,0,455,include,82,include,3,0.13414634146341464,TRUE,exclude
23.06.22,12:37:38,4345805,test,2_26,prime_positive,3,68,0,483,include,82,include,3,0.13414634146341464,TRUE,exclude
23.06.22,12:37:38,4345805,test,2_27,prime_positive,2,21,1,489,include,82,include,3,0.13414634146341464,TRUE,exclude
23.06.22,12:37:38,4345805,test,2_28,prime_positive,4,25,0,436,include,82,include,3,0.13414634146341464,TRUE,exclude
23.06.22,12:37:38,4345805,test,2_29,prime_negative,2,51,0,421,include,82,include,3,0.13414634146341464,TRUE,exclude
23.06.22,12:37:38,4345805,test,2_30,prime_negative,4,6,1,391,include,82,include,3,0.13414634146341464,TRUE,exclude
23.06.22,12:37:38,4345805,test,2_31,prime_negative,1,55,0,577,include,82,include,3,0.13414634146341464,TRUE,exclude
23.06.22,12:37:38,4345805,test,2_32,prime_negative,2,39,1,604,include,82,include,3,0.13414634146341464,TRUE,exclude
23.06.22,12:37:38,4345805,test,2_33,prime_positive,1,28,1,396,include,82,include,3,0.13414634146341464,TRUE,exclude
23.06.22,12:37:38,4345805,test,2_34,prime_negative,3,24,1,583,include,82,include,3,0.13414634146341464,TRUE,exclude
23.06.22,12:37:38,4345805,test,2_35,prime_negative,2,62,0,367,include,82,include,3,0.13414634146341464,TRUE,exclude
23.06.22,12:37:38,4345805,test,2_36,prime_positive,3,41,1,406,include,82,include,3,0.13414634146341464,TRUE,exclude
23.06.22,12:37:38,4345805,test,2_37,prime_positive,3,54,0,290,include,82,include,3,0.13414634146341464,TRUE,exclude
23.06.22,12:37:38,4345805,test,2_38,prime_positive,2,17,1,239,include,82,include,3,0.13414634146341464,TRUE,exclude
23.06.22,12:37:38,4345805,test,2_39,prime_positive,4,63,0,87,include,82,include,3,0.13414634146341464,TRUE,exclude
23.06.22,12:37:38,4345805,test,2_40,prime_positive,1,38,1,422,include,82,include,3,0.13414634146341464,TRUE,exclude
23.06.22,12:37:38,4345805,test,2_41,prime_negative,3,59,1,923,include,82,include,3,0.13414634146341464,TRUE,exclude
23.06.22,12:37:38,4345805,test,2_42,prime_negative,1,37,1,543,include,82,include,3,0.13414634146341464,TRUE,exclude
23.06.22,12:37:38,4345805,test,2_43,prime_positive,4,71,0,353,include,82,include,3,0.13414634146341464,TRUE,exclude
23.06.22,12:37:38,4345805,test,2_44,prime_positive,3,26,0,452,include,82,include,3,0.13414634146341464,TRUE,exclude
23.06.22,12:37:38,4345805,test,2_45,prime_positive,2,16,1,362,include,82,include,3,0.13414634146341464,TRUE,exclude
23.06.22,12:37:38,4345805,test,2_46,prime_positive,1,52,0,224,include,82,include,3,0.13414634146341464,TRUE,exclude
23.06.22,12:37:38,4345805,test,2_47,prime_negative,4,34,1,140,include,82,include,3,0.13414634146341464,TRUE,exclude
23.06.22,12:37:38,4345805,test,2_48,prime_negative,3,36,0,292,include,82,include,3,0.13414634146341464,TRUE,exclude
23.06.22,12:37:38,4345805,test,2_49,prime_positive,1,44,0,56,include,82,include,3,0.13414634146341464,TRUE,exclude
23.06.22,12:37:38,4345805,test,2_50,prime_negative,2,46,0,881,include,82,include,3,0.13414634146341464,TRUE,exclude
23.06.22,12:37:38,4345805,test,2_51,prime_positive,3,49,0,361,include,82,include,3,0.13414634146341464,TRUE,exclude
23.06.22,12:37:38,4345805,test,2_52,prime_negative,4,10,0,224,include,82,include,3,0.13414634146341464,TRUE,exclude
23.06.22,12:37:38,4345805,test,2_53,prime_negative,1,53,1,321,include,82,include,3,0.13414634146341464,TRUE,exclude
23.06.22,12:37:38,4345805,test,2_54,prime_negative,4,18,1,190,include,82,include,3,0.13414634146341464,TRUE,exclude
23.06.22,12:37:38,4345805,test,2_55,prime_negative,1,66,1,266,include,82,include,3,0.13414634146341464,TRUE,exclude
23.06.22,12:37:38,4345805,test,2_56,prime_negative,3,19,0,195,include,82,include,3,0.13414634146341464,TRUE,exclude
23.06.22,12:37:38,4345805,test,2_57,prime_positive,4,40,0,286,include,82,include,3,0.13414634146341464,TRUE,exclude
23.06.22,12:37:38,4345805,test,2_58,prime_negative,2,22,1,246,include,82,include,3,0.13414634146341464,TRUE,exclude
23.06.22,12:37:38,4345805,test,2_59,prime_negative,2,23,1,441,include,82,include,3,0.13414634146341464,TRUE,exclude
23.06.22,12:37:38,4345805,test,2_60,prime_positive,2,35,0,349,include,82,include,3,0.13414634146341464,TRUE,exclude
23.06.22,12:37:38,4345805,test,2_61,prime_positive,4,61,1,325,include,82,include,3,0.13414634146341464,TRUE,exclude
23.06.22,12:37:38,4345805,test,2_62,prime_negative,4,9,1,397,include,82,include,3,0.13414634146341464,TRUE,exclude
23.06.22,12:37:38,4345805,test,2_63,prime_negative,1,7,1,382,include,82,include,3,0.13414634146341464,TRUE,exclude
23.06.22,12:37:38,4345805,test,2_64,prime_positive,2,36,0,353,include,82,include,3,0.13414634146341464,TRUE,exclude
23.06.22,12:37:38,4345805,test,2_65,prime_negative,3,60,0,299,include,82,include,3,0.13414634146341464,TRUE,exclude
23.06.22,12:37:38,4345805,test,2_66,prime_negative,3,28,1,319,include,82,include,3,0.13414634146341464,TRUE,exclude
23.06.22,12:37:38,4345805,test,2_67,prime_negative,1,21,0,315,include,82,include,3,0.13414634146341464,TRUE,exclude
23.06.22,12:37:38,4345805,test,2_68,prime_negative,4,42,1,247,include,82,include,3,0.13414634146341464,TRUE,exclude
23.06.22,12:37:38,4345805,test,2_69,prime_negative,2,35,1,167,include,82,include,3,0.13414634146341464,TRUE,exclude
23.06.22,12:37:38,4345805,test,2_70,prime_positive,1,30,1,222,include,82,include,3,0.13414634146341464,TRUE,exclude
23.06.22,12:37:38,4345805,test,2_71,prime_positive,3,39,0,493,include,82,include,3,0.13414634146341464,TRUE,exclude
23.06.22,12:37:38,4345805,test,2_72,prime_negative,4,46,0,255,include,82,include,3,0.13414634146341464,TRUE,exclude
23.06.22,12:37:38,4345805,test,2_73,prime_positive,3,12,0,197,include,82,include,3,0.13414634146341464,TRUE,exclude
23.06.22,13:37:57,786441188,practice,1_4,prime_positive_practice,0,0,0,2045,include,82,include,1.6666666666666667,0.2926829268292683,FALSE,include
23.06.22,13:37:57,786441188,practice,1_5,prime_positive_practice,0,0,1,1563,include,82,include,1.6666666666666667,0.2926829268292683,TRUE,exclude
23.06.22,13:37:57,786441188,practice,1_6,prime_positive_practice,0,0,0,3516,include,82,include,1.6666666666666667,0.2926829268292683,TRUE,exclude
23.06.22,13:37:57,786441188,practice,1_7,prime_negative_practice,0,0,0,790,include,82,include,1.6666666666666667,0.2926829268292683,TRUE,exclude
23.06.22,13:37:57,786441188,practice,1_8,prime_positive_practice,0,0,1,376,include,82,include,1.6666666666666667,0.2926829268292683,TRUE,exclude
23.06.22,13:37:57,786441188,practice,1_9,prime_negative_practice,0,0,0,533,include,82,include,1.6666666666666667,0.2926829268292683,TRUE,exclude
23.06.22,13:37:57,786441188,practice,1_10,prime_negative_practice,0,0,0,476,include,82,include,1.6666666666666667,0.2926829268292683,TRUE,exclude
23.06.22,13:37:57,786441188,practice,1_11,prime_positive_practice,0,0,1,585,include,82,include,1.6666666666666667,0.2926829268292683,TRUE,exclude
23.06.22,13:37:57,786441188,practice,1_12,prime_negative_practice,0,0,0,806,include,82,include,1.6666666666666667,0.2926829268292683,TRUE,exclude
23.06.22,13:37:57,786441188,practice,1_13,prime_negative_practice,0,0,0,382,include,82,include,1.6666666666666667,0.2926829268292683,TRUE,exclude
23.06.22,13:37:57,786441188,test,2_2,prime_negative,1,24,0,834,include,82,include,1.6666666666666667,0.2926829268292683,TRUE,exclude
23.06.22,13:37:57,786441188,test,2_3,prime_positive,3,37,1,433,include,82,include,1.6666666666666667,0.2926829268292683,TRUE,exclude
23.06.22,13:37:57,786441188,test,2_4,prime_negative,3,29,0,277,include,82,include,1.6666666666666667,0.2926829268292683,TRUE,exclude
23.06.22,13:37:57,786441188,test,2_5,prime_negative,4,23,0,523,include,82,include,1.6666666666666667,0.2926829268292683,TRUE,exclude
23.06.22,13:37:57,786441188,test,2_6,prime_positive,2,27,1,375,include,82,include,1.6666666666666667,0.2926829268292683,TRUE,exclude
23.06.22,13:37:57,786441188,test,2_7,prime_positive,4,52,0,330,include,82,include,1.6666666666666667,0.2926829268292683,TRUE,exclude
23.06.22,13:37:57,786441188,test,2_8,prime_negative,2,38,0,443,include,82,include,1.6666666666666667,0.2926829268292683,TRUE,exclude
23.06.22,13:37:57,786441188,test,2_9,prime_negative,3,72,0,421,include,82,include,1.6666666666666667,0.2926829268292683,TRUE,exclude
23.06.22,13:37:57,786441188,test,2_10,prime_negative,1,39,0,420,include,82,include,1.6666666666666667,0.2926829268292683,TRUE,exclude
23.06.22,13:37:57,786441188,test,2_11,prime_positive,4,16,0,918,include,82,include,1.6666666666666667,0.2926829268292683,TRUE,exclude
23.06.22,13:37:57,786441188,test,2_12,prime_negative,4,2,0,546,include,82,include,1.6666666666666667,0.2926829268292683,TRUE,exclude
23.06.22,13:37:57,786441188,test,2_13,prime_negative,1,33,0,462,include,82,include,1.6666666666666667,0.2926829268292683,TRUE,exclude
23.06.22,13:37:57,786441188,test,2_14,prime_positive,1,28,1,377,include,82,include,1.6666666666666667,0.2926829268292683,TRUE,exclude
23.06.22,13:37:57,786441188,test,2_15,prime_positive,2,41,1,457,include,82,include,1.6666666666666667,0.2926829268292683,TRUE,exclude
23.06.22,13:37:57,786441188,test,2_16,prime_negative,3,44,0,473,include,82,include,1.6666666666666667,0.2926829268292683,TRUE,exclude
23.06.22,13:37:57,786441188,test,2_17,prime_positive,3,58,1,939,include,82,include,1.6666666666666667,0.2926829268292683,TRUE,exclude
23.06.22,13:37:57,786441188,test,2_18,prime_positive,2,45,1,467,include,82,include,1.6666666666666667,0.2926829268292683,TRUE,exclude
23.06.22,13:37:57,786441188,test,2_19,prime_positive,1,36,1,367,include,82,include,1.6666666666666667,0.2926829268292683,TRUE,exclude
23.06.22,13:37:57,786441188,test,2_20,prime_negative,2,5,0,487,include,82,include,1.6666666666666667,0.2926829268292683,TRUE,exclude
23.06.22,13:37:57,786441188,test,2_21,prime_negative,4,54,0,663,include,82,include,1.6666666666666667,0.2926829268292683,TRUE,exclude
23.06.22,13:37:57,786441188,test,2_22,prime_positive,4,1,0,676,include,82,include,1.6666666666666667,0.2926829268292683,TRUE,exclude
23.06.22,13:37:57,786441188,test,2_23,prime_positive,3,13,1,549,include,82,include,1.6666666666666667,0.2926829268292683,TRUE,exclude
23.06.22,13:37:57,786441188,test,2_24,prime_positive,4,70,0,431,include,82,include,1.6666666666666667,0.2926829268292683,TRUE,exclude
23.06.22,13:37:57,786441188,test,2_25,prime_positive,1,34,1,330,include,82,include,1.6666666666666667,0.2926829268292683,TRUE,exclude
23.06.22,13:37:57,786441188,test,2_26,prime_negative,2,57,0,865,include,82,include,1.6666666666666667,0.2926829268292683,TRUE,exclude
23.06.22,13:37:57,786441188,test,2_27,prime_positive,2,6,1,290,include,82,include,1.6666666666666667,0.2926829268292683,TRUE,exclude
23.06.22,13:37:57,786441188,test,2_28,prime_positive,3,21,1,449,include,82,include,1.6666666666666667,0.2926829268292683,TRUE,exclude
23.06.22,13:37:57,786441188,test,2_29,prime_positive,3,10,1,435,include,82,include,1.6666666666666667,0.2926829268292683,TRUE,exclude
23.06.22,13:37:57,786441188,test,2_30,prime_positive,1,60,1,362,include,82,include,1.6666666666666667,0.2926829268292683,TRUE,exclude
23.06.22,13:37:57,786441188,test,2_31,prime_negative,4,11,0,567,include,82,include,1.6666666666666667,0.2926829268292683,TRUE,exclude
23.06.22,13:37:57,786441188,test,2_32,prime_negative,1,67,0,299,include,82,include,1.6666666666666667,0.2926829268292683,TRUE,exclude
23.06.22,13:37:57,786441188,test,2_33,prime_negative,3,3,0,300,include,82,include,1.6666666666666667,0.2926829268292683,TRUE,exclude
23.06.22,13:37:57,786441188,test,2_34,prime_positive,4,48,0,362,include,82,include,1.6666666666666667,0.2926829268292683,TRUE,exclude
23.06.22,13:37:57,786441188,test,2_35,prime_negative,1,68,0,635,include,82,include,1.6666666666666667,0.2926829268292683,TRUE,exclude
23.06.22,13:37:57,786441188,test,2_36,prime_negative,2,69,0,528,include,82,include,1.6666666666666667,0.2926829268292683,TRUE,exclude
23.06.22,13:37:57,786441188,test,2_37,prime_positive,2,63,1,441,include,82,include,1.6666666666666667,0.2926829268292683,TRUE,exclude
23.06.22,13:37:57,786441188,test,2_38,prime_positive,1,47,1,554,include,82,include,1.6666666666666667,0.2926829268292683,TRUE,exclude
23.06.22,13:37:57,786441188,test,2_39,prime_negative,3,40,0,568,include,82,include,1.6666666666666667,0.2926829268292683,TRUE,exclude
23.06.22,13:37:57,786441188,test,2_40,prime_positive,2,50,1,553,include,82,include,1.6666666666666667,0.2926829268292683,TRUE,exclude
23.06.22,13:37:57,786441188,test,2_41,prime_negative,4,59,0,722,include,82,include,1.6666666666666667,0.2926829268292683,TRUE,exclude
23.06.22,13:37:57,786441188,test,2_42,prime_positive,3,15,1,525,include,82,include,1.6666666666666667,0.2926829268292683,TRUE,exclude
23.06.22,13:37:57,786441188,test,2_43,prime_positive,4,43,0,669,include,82,include,1.6666666666666667,0.2926829268292683,TRUE,exclude
23.06.22,13:37:57,786441188,test,2_44,prime_positive,2,32,1,319,include,82,include,1.6666666666666667,0.2926829268292683,TRUE,exclude
23.06.22,13:37:57,786441188,test,2_45,prime_negative,4,30,0,454,include,82,include,1.6666666666666667,0.2926829268292683,TRUE,exclude
23.06.22,13:37:57,786441188,test,2_46,prime_positive,3,53,1,415,include,82,include,1.6666666666666667,0.2926829268292683,TRUE,exclude
23.06.22,13:37:57,786441188,test,2_47,prime_negative,3,4,0,515,include,82,include,1.6666666666666667,0.2926829268292683,TRUE,exclude
23.06.22,13:37:57,786441188,test,2_48,prime_positive,4,25,0,404,include,82,include,1.6666666666666667,0.2926829268292683,TRUE,exclude
23.06.22,13:37:57,786441188,test,2_49,prime_negative,2,71,0,461,include,82,include,1.6666666666666667,0.2926829268292683,TRUE,exclude
23.06.22,13:37:57,786441188,test,2_50,prime_positive,1,20,1,401,include,82,include,1.6666666666666667,0.2926829268292683,TRUE,exclude
23.06.22,13:37:57,786441188,test,2_51,prime_negative,1,12,0,422,include,82,include,1.6666666666666667,0.2926829268292683,TRUE,exclude
23.06.22,13:37:57,786441188,test,2_52,prime_positive,2,14,1,466,include,82,include,1.6666666666666667,0.2926829268292683,TRUE,exclude
23.06.22,13:37:57,786441188,test,2_53,prime_negative,2,56,0,362,include,82,include,1.6666666666666667,0.2926829268292683,TRUE,exclude
23.06.22,13:37:57,786441188,test,2_54,prime_negative,4,66,0,1009,include,82,include,1.6666666666666667,0.2926829268292683,TRUE,exclude
23.06.22,13:37:57,786441188,test,2_55,prime_positive,4,26,0,1065,include,82,include,1.6666666666666667,0.2926829268292683,TRUE,exclude
23.06.22,13:37:57,786441188,test,2_56,prime_positive,1,8,1,320,include,82,include,1.6666666666666667,0.2926829268292683,TRUE,exclude
23.06.22,13:37:57,786441188,test,2_57,prime_positive,3,31,1,435,include,82,include,1.6666666666666667,0.2926829268292683,TRUE,exclude
23.06.22,13:37:57,786441188,test,2_58,prime_negative,3,46,0,440,include,82,include,1.6666666666666667,0.2926829268292683,TRUE,exclude
23.06.22,13:37:57,786441188,test,2_59,prime_positive,4,22,0,4314,include,82,include,1.6666666666666667,0.2926829268292683,TRUE,exclude
23.06.22,13:37:57,786441188,test,2_60,prime_negative,1,51,0,3146,include,82,include,1.6666666666666667,0.2926829268292683,TRUE,exclude
23.06.22,13:37:57,786441188,test,2_61,prime_negative,4,55,1,512,include,82,include,1.6666666666666667,0.2926829268292683,TRUE,exclude
23.06.22,13:37:57,786441188,test,2_62,prime_negative,1,49,0,2225,include,82,include,1.6666666666666667,0.2926829268292683,TRUE,exclude
23.06.22,13:37:57,786441188,test,2_63,prime_positive,2,65,0,1646,include,82,include,1.6666666666666667,0.2926829268292683,TRUE,exclude
23.06.22,13:37:57,786441188,test,2_64,prime_positive,1,70,1,1093,include,82,include,1.6666666666666667,0.2926829268292683,TRUE,exclude
23.06.22,13:37:57,786441188,test,2_65,prime_positive,3,53,0,1748,include,82,include,1.6666666666666667,0.2926829268292683,TRUE,exclude
23.06.22,13:37:57,786441188,test,2_66,prime_negative,2,69,0,718,include,82,include,1.6666666666666667,0.2926829268292683,TRUE,exclude
23.06.22,13:37:57,786441188,test,2_67,prime_negative,3,38,1,789,include,82,include,1.6666666666666667,0.2926829268292683,TRUE,exclude
23.06.22,13:37:57,786441188,test,2_68,prime_positive,3,65,0,878,include,82,include,1.6666666666666667,0.2926829268292683,TRUE,exclude
23.06.22,13:37:57,786441188,test,2_69,prime_negative,3,43,1,1222,include,82,include,1.6666666666666667,0.2926829268292683,TRUE,exclude
23.06.22,13:37:57,786441188,test,2_70,prime_negative,2,48,0,834,include,82,include,1.6666666666666667,0.2926829268292683,TRUE,exclude
23.06.22,13:37:57,786441188,test,2_71,prime_negative,4,33,1,710,include,82,include,1.6666666666666667,0.2926829268292683,TRUE,exclude
23.06.22,13:37:57,786441188,test,2_72,prime_negative,1,35,1,839,include,82,include,1.6666666666666667,0.2926829268292683,TRUE,exclude
23.06.22,13:37:57,786441188,test,2_73,prime_negative,1,59,0,678,include,82,include,1.6666666666666667,0.2926829268292683,TRUE,exclude
23.06.22,12:42:40,510787584,practice,1_4,prime_negative_practice,0,0,0,5015,include,82,include,4,0.12195121951219512,FALSE,include
23.06.22,12:42:40,510787584,practice,1_5,prime_negative_practice,0,0,0,1463,include,82,include,4,0.12195121951219512,TRUE,exclude
23.06.22,12:42:40,510787584,practice,1_6,prime_positive_practice,0,0,0,361,include,82,include,4,0.12195121951219512,TRUE,exclude
23.06.22,12:42:40,510787584,practice,1_7,prime_positive_practice,0,0,0,604,include,82,include,4,0.12195121951219512,TRUE,exclude
23.06.22,12:42:40,510787584,practice,1_8,prime_negative_practice,0,0,0,1024,include,82,include,4,0.12195121951219512,TRUE,exclude
23.06.22,12:42:40,510787584,practice,1_9,prime_negative_practice,0,0,0,2473,include,82,include,4,0.12195121951219512,TRUE,exclude
23.06.22,12:42:40,510787584,practice,1_10,prime_positive_practice,0,0,1,1475,include,82,include,4,0.12195121951219512,TRUE,exclude
23.06.22,12:42:40,510787584,practice,1_11,prime_negative_practice,0,0,0,368,include,82,include,4,0.12195121951219512,TRUE,exclude
23.06.22,12:42:40,510787584,practice,1_12,prime_positive_practice,0,0,0,871,include,82,include,4,0.12195121951219512,TRUE,exclude
23.06.22,12:42:40,510787584,practice,1_13,prime_positive_practice,0,0,0,282,include,82,include,4,0.12195121951219512,TRUE,exclude
23.06.22,12:42:40,510787584,test,2_2,prime_positive,2,6,0,951,include,82,include,4,0.12195121951219512,TRUE,exclude
23.06.22,12:42:40,510787584,test,2_3,prime_negative,1,8,0,497,include,82,include,4,0.12195121951219512,TRUE,exclude
23.06.22,12:42:40,510787584,test,2_4,prime_positive,3,60,0,433,include,82,include,4,0.12195121951219512,TRUE,exclude
23.06.22,12:42:40,510787584,test,2_5,prime_positive,1,46,0,319,include,82,include,4,0.12195121951219512,TRUE,exclude
23.06.22,12:42:40,510787584,test,2_6,prime_positive,2,9,0,426,include,82,include,4,0.12195121951219512,TRUE,exclude
23.06.22,12:42:40,510787584,test,2_7,prime_negative,2,64,0,300,include,82,include,4,0.12195121951219512,TRUE,exclude
23.06.22,12:42:40,510787584,test,2_8,prime_negative,4,16,0,142,include,82,include,4,0.12195121951219512,TRUE,exclude
23.06.22,12:42:40,510787584,test,2_9,prime_negative,4,58,0,204,include,82,include,4,0.12195121951219512,TRUE,exclude
23.06.22,12:42:40,510787584,test,2_10,prime_negative,3,31,0,159,include,82,include,4,0.12195121951219512,TRUE,exclude
23.06.22,12:42:40,510787584,test,2_11,prime_positive,3,36,0,239,include,82,include,4,0.12195121951219512,TRUE,exclude
23.06.22,12:42:40,510787584,test,2_12,prime_positive,1,44,1,145,include,82,include,4,0.12195121951219512,TRUE,exclude
23.06.22,12:42:40,510787584,test,2_13,prime_negative,2,54,1,255,include,82,include,4,0.12195121951219512,TRUE,exclude
23.06.22,12:42:40,510787584,test,2_14,prime_positive,4,59,1,389,include,82,include,4,0.12195121951219512,TRUE,exclude
23.06.22,12:42:40,510787584,test,2_15,prime_positive,3,4,1,199,include,82,include,4,0.12195121951219512,TRUE,exclude
23.06.22,12:42:40,510787584,test,2_16,prime_positive,2,10,1,191,include,82,include,4,0.12195121951219512,TRUE,exclude
23.06.22,12:42:40,510787584,test,2_17,prime_positive,4,39,0,598,include,82,include,4,0.12195121951219512,TRUE,exclude
23.06.22,12:42:40,510787584,test,2_18,prime_positive,1,38,0,393,include,82,include,4,0.12195121951219512,TRUE,exclude
23.06.22,12:42:40,510787584,test,2_19,prime_positive,4,27,0,341,include,82,include,4,0.12195121951219512,TRUE,exclude
23.06.22,12:42:40,510787584,test,2_20,prime_negative,1,71,0,319,include,82,include,4,0.12195121951219512,TRUE,exclude
23.06.22,12:42:40,510787584,test,2_21,prime_negative,3,72,0,314,include,82,include,4,0.12195121951219512,TRUE,exclude
23.06.22,12:42:40,510787584,test,2_22,prime_positive,2,35,0,413,include,82,include,4,0.12195121951219512,TRUE,exclude
23.06.22,12:42:40,510787584,test,2_23,prime_negative,2,41,0,297,include,82,include,4,0.12195121951219512,TRUE,exclude
23.06.22,12:42:40,510787584,test,2_24,prime_positive,1,56,0,373,include,82,include,4,0.12195121951219512,TRUE,exclude
23.06.22,12:42:40,510787584,test,2_25,prime_positive,3,50,1,453,include,82,include,4,0.12195121951219512,TRUE,exclude
23.06.22,12:42:40,510787584,test,2_26,prime_positive,3,53,1,434,include,82,include,4,0.12195121951219512,TRUE,exclude
23.06.22,12:42:40,510787584,test,2_27,prime_negative,4,17,1,341,include,82,include,4,0.12195121951219512,TRUE,exclude
23.06.22,12:42:40,510787584,test,2_28,prime_negative,1,13,1,234,include,82,include,4,0.12195121951219512,TRUE,exclude
23.06.22,12:42:40,510787584,test,2_29,prime_negative,4,3,0,399,include,82,include,4,0.12195121951219512,TRUE,exclude
23.06.22,12:42:40,510787584,test,2_30,prime_positive,2,63,0,477,include,82,include,4,0.12195121951219512,TRUE,exclude
23.06.22,12:42:40,510787584,test,2_31,prime_negative,2,23,0,399,include,82,include,4,0.12195121951219512,TRUE,exclude
23.06.22,12:42:40,510787584,test,2_32,prime_negative,1,51,1,301,include,82,include,4,0.12195121951219512,TRUE,exclude
23.06.22,12:42:40,510787584,test,2_33,prime_negative,3,30,0,201,include,82,include,4,0.12195121951219512,TRUE,exclude
23.06.22,12:42:40,510787584,test,2_34,prime_positive,1,57,1,84,include,82,include,4,0.12195121951219512,TRUE,exclude
23.06.22,12:42:40,510787584,test,2_35,prime_positive,4,18,0,118,include,82,include,4,0.12195121951219512,TRUE,exclude
23.06.22,12:42:40,510787584,test,2_36,prime_negative,3,14,0,144,include,82,include,4,0.12195121951219512,TRUE,exclude
23.06.22,12:42:40,510787584,test,2_37,prime_positive,1,21,0,335,include,82,include,4,0.12195121951219512,TRUE,exclude
23.06.22,12:42:40,510787584,test,2_38,prime_negative,4,65,1,346,include,82,include,4,0.12195121951219512,TRUE,exclude
23.06.22,12:42:40,510787584,test,2_39,prime_positive,3,15,0,513,include,82,include,4,0.12195121951219512,TRUE,exclude
23.06.22,12:42:40,510787584,test,2_40,prime_negative,1,69,0,481,include,82,include,4,0.12195121951219512,TRUE,exclude
23.06.22,12:42:40,510787584,test,2_41,prime_positive,4,52,1,221,include,82,include,4,0.12195121951219512,TRUE,exclude
23.06.22,12:42:40,510787584,test,2_42,prime_positive,2,1,0,191,include,82,include,4,0.12195121951219512,TRUE,exclude
23.06.22,12:42:40,510787584,test,2_43,prime_positive,1,48,0,495,include,82,include,4,0.12195121951219512,TRUE,exclude
23.06.22,12:42:40,510787584,test,2_44,prime_positive,2,62,1,432,include,82,include,4,0.12195121951219512,TRUE,exclude
23.06.22,12:42:40,510787584,test,2_45,prime_negative,2,19,0,383,include,82,include,4,0.12195121951219512,TRUE,exclude
23.06.22,12:42:40,510787584,test,2_46,prime_positive,3,25,1,256,include,82,include,4,0.12195121951219512,TRUE,exclude
23.06.22,12:42:40,510787584,test,2_47,prime_positive,4,28,0,123,include,82,include,4,0.12195121951219512,TRUE,exclude
23.06.22,12:42:40,510787584,test,2_48,prime_negative,1,67,1,250,include,82,include,4,0.12195121951219512,TRUE,exclude
23.06.22,12:42:40,510787584,test,2_49,prime_positive,1,68,0,157,include,82,include,4,0.12195121951219512,TRUE,exclude
23.06.22,12:42:40,510787584,test,2_50,prime_negative,3,34,1,222,include,82,include,4,0.12195121951219512,TRUE,exclude
23.06.22,12:42:40,510787584,test,2_51,prime_negative,4,7,0,175,include,82,include,4,0.12195121951219512,TRUE,exclude
23.06.22,12:42:40,510787584,test,2_52,prime_negative,2,2,1,251,include,82,include,4,0.12195121951219512,TRUE,exclude
23.06.22,12:42:40,510787584,test,2_53,prime_negative,4,22,0,270,include,82,include,4,0.12195121951219512,TRUE,exclude
23.06.22,12:42:40,510787584,test,2_54,prime_negative,3,37,0,129,include,82,include,4,0.12195121951219512,TRUE,exclude
23.06.22,12:42:40,510787584,test,2_55,prime_negative,2,42,1,206,include,82,include,4,0.12195121951219512,TRUE,exclude
23.06.22,12:42:40,510787584,test,2_56,prime_positive,2,49,0,565,include,82,include,4,0.12195121951219512,TRUE,exclude
23.06.22,12:42:40,510787584,test,2_57,prime_negative,1,45,0,517,include,82,include,4,0.12195121951219512,TRUE,exclude
23.06.22,12:42:40,510787584,test,2_58,prime_negative,3,43,0,242,include,82,include,4,0.12195121951219512,TRUE,exclude
23.06.22,12:42:40,510787584,test,2_59,prime_positive,4,40,0,208,include,82,include,4,0.12195121951219512,TRUE,exclude
23.06.22,12:42:40,510787584,test,2_60,prime_negative,4,47,0,287,include,82,include,4,0.12195121951219512,TRUE,exclude
23.06.22,12:42:40,510787584,test,2_61,prime_positive,3,61,0,296,include,82,include,4,0.12195121951219512,TRUE,exclude
23.06.22,12:42:40,510787584,test,2_62,prime_negative,2,33,0,450,include,82,include,4,0.12195121951219512,TRUE,exclude
23.06.22,12:42:40,510787584,test,2_63,prime_positive,1,20,0,415,include,82,include,4,0.12195121951219512,TRUE,exclude
23.06.22,12:42:40,510787584,test,2_64,prime_positive,3,44,0,307,include,82,include,4,0.12195121951219512,TRUE,exclude
23.06.22,12:42:40,510787584,test,2_65,prime_negative,1,49,0,226,include,82,include,4,0.12195121951219512,TRUE,exclude
23.06.22,12:42:40,510787584,test,2_66,prime_negative,3,8,0,167,include,82,include,4,0.12195121951219512,TRUE,exclude
23.06.22,12:42:40,510787584,test,2_67,prime_negative,2,11,0,306,include,82,include,4,0.12195121951219512,TRUE,exclude
23.06.22,12:42:40,510787584,test,2_68,prime_negative,4,65,0,141,include,82,include,4,0.12195121951219512,TRUE,exclude
23.06.22,12:42:40,510787584,test,2_69,prime_positive,4,33,0,103,include,82,include,4,0.12195121951219512,TRUE,exclude
23.06.22,12:42:40,510787584,test,2_70,prime_negative,1,23,0,307,include,82,include,4,0.12195121951219512,TRUE,exclude
23.06.22,12:42:40,510787584,test,2_71,prime_negative,4,56,0,297,include,82,include,4,0.12195121951219512,TRUE,exclude
23.06.22,12:42:40,510787584,test,2_72,prime_positive,2,41,0,143,include,82,include,4,0.12195121951219512,TRUE,exclude
23.06.22,12:42:40,510787584,test,2_73,prime_positive,4,16,0,276,include,82,include,4,0.12195121951219512,TRUE,exclude
23.06.22,12:40:44,684265529,practice,1_4,prime_negative_practice,0,0,1,3073,include,82,include,1,0.2804878048780488,FALSE,include
23.06.22,12:40:44,684265529,practice,1_5,prime_positive_practice,0,0,1,1905,include,82,include,1,0.2804878048780488,TRUE,exclude
23.06.22,12:40:44,684265529,practice,1_6,prime_negative_practice,0,0,1,3100,include,82,include,1,0.2804878048780488,TRUE,exclude
23.06.22,12:40:44,684265529,practice,1_7,prime_positive_practice,0,0,1,1189,include,82,include,1,0.2804878048780488,TRUE,exclude
23.06.22,12:40:44,684265529,practice,1_8,prime_negative_practice,0,0,0,2313,include,82,include,1,0.2804878048780488,TRUE,exclude
23.06.22,12:40:44,684265529,practice,1_9,prime_negative_practice,0,0,0,674,include,82,include,1,0.2804878048780488,TRUE,exclude
23.06.22,12:40:44,684265529,practice,1_10,prime_positive_practice,0,0,1,778,include,82,include,1,0.2804878048780488,TRUE,exclude
23.06.22,12:40:44,684265529,practice,1_11,prime_negative_practice,0,0,1,1063,include,82,include,1,0.2804878048780488,TRUE,exclude
23.06.22,12:40:44,684265529,practice,1_12,prime_positive_practice,0,0,1,803,include,82,include,1,0.2804878048780488,TRUE,exclude
23.06.22,12:40:44,684265529,practice,1_13,prime_positive_practice,0,0,1,586,include,82,include,1,0.2804878048780488,TRUE,exclude
23.06.22,12:40:44,684265529,test,2_2,prime_negative,3,10,1,1679,include,82,include,1,0.2804878048780488,TRUE,exclude
23.06.22,12:40:44,684265529,test,2_3,prime_positive,1,25,0,1287,include,82,include,1,0.2804878048780488,TRUE,exclude
23.06.22,12:40:44,684265529,test,2_4,prime_positive,2,15,1,2953,include,82,include,1,0.2804878048780488,TRUE,exclude
23.06.22,12:40:44,684265529,test,2_5,prime_negative,2,51,0,1788,include,82,include,1,0.2804878048780488,TRUE,exclude
23.06.22,12:40:44,684265529,test,2_6,prime_negative,1,33,0,515,include,82,include,1,0.2804878048780488,TRUE,exclude
23.06.22,12:40:44,684265529,test,2_7,prime_positive,4,14,1,442,include,82,include,1,0.2804878048780488,TRUE,exclude
23.06.22,12:40:44,684265529,test,2_8,prime_positive,1,68,1,302,include,82,include,1,0.2804878048780488,TRUE,exclude
23.06.22,12:40:44,684265529,test,2_9,prime_negative,3,6,0,444,include,82,include,1,0.2804878048780488,TRUE,exclude
23.06.22,12:40:44,684265529,test,2_10,prime_negative,4,55,1,805,include,82,include,1,0.2804878048780488,TRUE,exclude
23.06.22,12:40:44,684265529,test,2_11,prime_positive,3,5,1,303,include,82,include,1,0.2804878048780488,TRUE,exclude
23.06.22,12:40:44,684265529,test,2_12,prime_positive,2,53,1,1309,include,82,include,1,0.2804878048780488,TRUE,exclude
23.06.22,12:40:44,684265529,test,2_13,prime_negative,2,69,1,843,include,82,include,1,0.2804878048780488,TRUE,exclude
23.06.22,12:40:44,684265529,test,2_14,prime_negative,1,59,1,452,include,82,include,1,0.2804878048780488,TRUE,exclude
23.06.22,12:40:44,684265529,test,2_15,prime_negative,1,43,1,1457,include,82,include,1,0.2804878048780488,TRUE,exclude
23.06.22,12:40:44,684265529,test,2_16,prime_positive,4,71,1,824,include,82,include,1,0.2804878048780488,TRUE,exclude
23.06.22,12:40:44,684265529,test,2_17,prime_positive,2,46,1,1316,include,82,include,1,0.2804878048780488,TRUE,exclude
23.06.22,12:40:44,684265529,test,2_18,prime_positive,1,26,1,2254,include,82,include,1,0.2804878048780488,TRUE,exclude
23.06.22,12:40:44,684265529,test,2_19,prime_negative,4,31,0,490,include,82,include,1,0.2804878048780488,TRUE,exclude
23.06.22,12:40:44,684265529,test,2_20,prime_negative,2,2,1,687,include,82,include,1,0.2804878048780488,TRUE,exclude
23.06.22,12:40:44,684265529,test,2_21,prime_positive,4,48,1,530,include,82,include,1,0.2804878048780488,TRUE,exclude
23.06.22,12:40:44,684265529,test,2_22,prime_positive,3,38,1,674,include,82,include,1,0.2804878048780488,TRUE,exclude
